Timestamp (us),Gyroscope X (deg/s),Gyroscope Y (deg/s),Gyroscope Z (deg/s),Accelerometer X (g),Accelerometer Y (g),Accelerometer Z (g)
870776450,-0.054726,-0.033906,-0.049170,-0.253294,0.043872,0.967241
870778955,-0.115636,-0.034043,-0.048945,-0.256892,0.043146,0.964996
870781460,-0.237519,0.026502,-0.048069,-0.257617,0.041684,0.964271
870783966,-0.298492,0.087183,-0.047419,-0.255496,0.042439,0.967944
870786471,-0.298492,0.087183,-0.047419,-0.254021,0.045345,0.967937
870788977,-0.237731,0.087066,0.012971,-0.253246,0.046772,0.965749
870791481,-0.116060,0.087085,0.073135,-0.254045,0.043895,0.968683
870793987,-0.055150,0.087222,0.072910,-0.257719,0.043220,0.970805
870796492,0.066882,0.026932,0.011419,-0.257600,0.043873,0.964245
870798997,0.127941,0.027324,-0.049421,-0.253987,0.041655,0.964342
870801511,0.128004,-0.033495,-0.049846,-0.251109,0.043116,0.966564
870804008,0.067157,-0.094450,-0.050046,-0.252575,0.044604,0.967974
870806513,0.006311,-0.155405,-0.050246,-0.255482,0.040963,0.966506
870809018,-0.054387,-0.216106,-0.111061,-0.256922,0.040966,0.965750
870811524,-0.115446,-0.216498,-0.050220,-0.256159,0.042402,0.964291
870814029,-0.115658,-0.155934,0.010820,-0.255439,0.041667,0.964314
870816534,-0.115934,-0.034552,0.072285,-0.256222,0.042445,0.967930
870819039,-0.055001,0.087477,0.012295,-0.256203,0.041698,0.966483
870821544,0.005995,0.148687,-0.048120,-0.255469,0.039487,0.965068
870824050,0.005845,0.148432,0.012495,-0.251119,0.040190,0.965871
870826555,0.006121,0.027050,-0.048970,-0.250315,0.045264,0.963639
870829061,-0.054789,0.026913,-0.048745,-0.252481,0.045273,0.962869
870831566,0.006035,-0.034023,0.011220,-0.256924,0.043901,0.967171
870834071,0.066796,-0.034141,0.071609,-0.259872,0.043221,0.969307
870836576,0.005737,-0.034533,0.132450,-0.258345,0.044625,0.965678
870839081,-0.055024,-0.034415,0.072060,-0.253250,0.044575,0.965048
870841603,-0.054875,-0.034160,0.011445,-0.251811,0.044572,0.965804
870844103,0.006035,-0.034023,0.011220,-0.253957,0.043835,0.963587
870846598,0.067031,0.027187,-0.049196,-0.253267,0.042387,0.965075
870849103,0.006058,0.087868,-0.048545,-0.256203,0.041698,0.966483
870851608,0.006121,0.027050,-0.048970,-0.258373,0.039511,0.965012
870854113,0.005972,0.026795,0.011645,-0.255464,0.041684,0.965769
870856618,0.066859,-0.094960,0.071184,-0.252544,0.045316,0.966509
870859124,0.006162,-0.155660,0.010369,-0.254007,0.043869,0.966499
870861629,0.006460,-0.155151,-0.110861,-0.253323,0.041692,0.967995
870864134,0.006546,-0.094077,-0.171051,-0.254744,0.040949,0.965792
870866639,0.067180,0.027442,-0.109811,-0.255451,0.041675,0.965041
870869145,0.127941,0.027324,-0.049421,-0.255479,0.044627,0.967918
870871650,0.188616,-0.033867,0.071159,-0.254767,0.046097,0.969370
870874155,0.188616,-0.033867,0.071159,-0.253989,0.044590,0.965762
870876661,0.066796,-0.034141,0.071609,-0.256121,0.042377,0.962107
870879166,0.066796,-0.034141,0.071609,-0.256215,0.041707,0.967211
870881671,0.005737,-0.034533,0.132450,-0.253336,0.041701,0.968723
870884177,-0.055173,-0.034670,0.132675,-0.256183,0.040952,0.965036
870886681,-0.115785,-0.034297,0.011670,-0.259777,0.042423,0.963492
870889187,-0.176396,-0.033925,-0.109335,-0.255427,0.043126,0.964296
870891692,-0.176333,-0.094743,-0.109760,-0.251842,0.043860,0.967269
870894198,0.006333,-0.033514,-0.110010,-0.252592,0.042416,0.968001
870896703,0.066945,-0.033886,0.010994,-0.252573,0.043136,0.967264
870899208,0.127706,-0.034004,0.071384,-0.255472,0.043889,0.967199
870901713,0.188404,0.026696,0.132199,-0.256892,0.043146,0.964996
870904219,0.188702,0.027206,0.010969,-0.253237,0.043100,0.963610
870906724,0.127878,0.088142,-0.048996,-0.251789,0.040891,0.962937
870909229,0.067180,0.027442,-0.109811,-0.254724,0.040202,0.964345
870911734,0.067031,0.027187,-0.049196,-0.256220,0.039510,0.966510
870914240,0.127643,0.026814,0.071809,-0.255475,0.040225,0.965787
870916745,0.005674,0.026285,0.132875,-0.254718,0.040932,0.964336
870919250,-0.055214,0.148040,0.073335,-0.255464,0.041684,0.965769
870921755,-0.115889,0.209231,-0.047244,-0.257625,0.043890,0.965701
870924261,-0.115889,0.209231,-0.047244,-0.257595,0.046069,0.964946
870926766,-0.115974,0.148158,0.012946,-0.256836,0.043841,0.962075
870929271,0.005611,0.087104,0.133300,-0.254664,0.043094,0.962126
870931776,0.066584,0.026422,0.132649,-0.254006,0.042402,0.965789
870934282,0.066796,-0.034141,0.071609,-0.256215,0.041707,0.967211
870936787,0.006035,-0.034023,0.011220,-0.256191,0.043157,0.966466
870939293,0.067031,0.027187,-0.049196,-0.254739,0.043145,0.966494
870941798,0.128090,0.027579,-0.110036,-0.254774,0.040237,0.967257
870944303,0.189000,0.027716,-0.110261,-0.252603,0.040957,0.968018
870946808,0.188914,-0.033358,-0.050071,-0.254720,0.042399,0.965047
870949314,0.188530,-0.094941,0.131349,-0.257648,0.040972,0.965736
870951819,0.066710,-0.095215,0.131799,-0.253293,0.042404,0.966531
870954324,0.006162,-0.155660,0.010369,-0.251064,0.042353,0.963661
870956830,0.006311,-0.155405,-0.050246,-0.252596,0.040219,0.967299
870959335,0.067307,-0.094195,-0.110661,-0.254080,0.040986,0.969446
870961840,0.067031,0.027187,-0.049196,-0.253280,0.042396,0.965803
870964345,-0.055001,0.087477,0.012295,-0.254031,0.042419,0.967245
870966850,-0.054789,0.026913,-0.048745,-0.255466,0.044619,0.967190
870969356,-0.054726,-0.033906,-0.049170,-0.254733,0.043875,0.966485
870971861,0.006162,-0.155660,0.010369,-0.253974,0.041647,0.963614
870974366,0.127769,-0.094823,0.070959,-0.252522,0.041635,0.963642
870976871,0.188765,-0.033612,0.010544,-0.253367,0.040988,0.970188
870979377,0.188914,-0.033358,-0.050071,-0.256235,0.042453,0.968658
870981882,0.067243,-0.033377,-0.110236,-0.256885,0.042408,0.964277
870984387,0.006333,-0.033514,-0.110010,-0.253318,0.042421,0.967987
870986893,-0.054726,-0.033906,-0.049170,-0.254825,0.040271,0.970169
870989398,0.005909,0.087613,0.012070,-0.256940,0.040246,0.966487
870991903,-0.055065,0.148295,0.012720,-0.255433,0.042396,0.964305
870994408,0.005845,0.148432,0.012495,-0.256198,0.043895,0.967185
870996914,0.005782,0.209250,0.012920,-0.254020,0.043877,0.967227
870999419,0.005845,0.148432,0.012495,-0.253270,0.045322,0.966495
871001925,0.066755,0.148569,0.012270,-0.256920,0.046098,0.967872
871004430,0.127792,0.027069,0.011194,-0.260485,0.043150,0.962741
871006935,0.188702,0.027206,0.010969,-0.259094,0.041713,0.965699
871009440,0.249612,0.027343,0.010744,-0.255453,0.043143,0.965752
871011946,0.249548,0.088161,0.011169,-0.251786,0.044555,0.964348
871014451,0.188788,0.088279,-0.049221,-0.254691,0.046046,0.965002
871016956,0.127941,0.027324,-0.049421,-0.256851,0.046784,0.964223
871019461,0.128004,-0.033495,-0.049846,-0.252517,0.043832,0.964343
871021967,0.128004,-0.033495,-0.049846,-0.253259,0.040182,0.963645
871024472,0.127855,-0.033749,0.010769,-0.256910,0.042425,0.965732
871026977,0.188553,0.026951,0.071584,-0.253958,0.045302,0.964297
871029482,0.188765,-0.033612,0.010544,-0.253954,0.039433,0.961456
871031988,0.188977,-0.094176,-0.050496,-0.257659,0.039514,0.965754
871034493,0.128216,-0.094058,-0.110886,-0.258334,0.046084,0.965660
871036998,0.006184,-0.033769,-0.049395,-0.256819,0.046029,0.962048
871039503,-0.115848,0.026521,0.012095,-0.255416,0.044584,0.964278
871042009,-0.115911,0.087340,0.012520,-0.254718,0.040932,0.964336
871044514,-0.054789,0.026913,-0.048745,-0.257592,0.041667,0.962815
871047019,0.067180,0.027442,-0.109811,-0.256848,0.042382,0.962093
871049524,0.128302,-0.032985,-0.171076,-0.257556,0.044576,0.962052
871052030,0.128302,-0.032985,-0.171076,-0.256155,0.044599,0.964992
871054535,0.128153,-0.033240,-0.110461,-0.253989,0.044590,0.965762
871057040,0.127792,0.027069,0.011194,-0.253994,0.042393,0.965061
871059546,0.066733,0.026677,0.072034,-0.254697,0.045316,0.965011
871062051,0.005823,0.026540,0.072260,-0.256899,0.043884,0.965715
871064556,-0.054789,0.026913,-0.048745,-0.257634,0.047562,0.967840
871067062,0.006121,0.027050,-0.048970,-0.258348,0.047559,0.967098
871069567,0.188702,0.027206,0.010969,-0.256147,0.042394,0.963563
871072072,0.249526,-0.033730,0.070933,-0.256842,0.043112,0.962084
871074577,0.188616,-0.033867,0.071159,-0.256160,0.043869,0.965001
871077082,0.066796,-0.034141,0.071609,-0.251140,0.042404,0.968029
871079588,-0.055087,0.026403,0.072485,-0.255520,0.040989,0.968690
871082110,-0.054875,-0.034160,0.011445,-0.257682,0.044662,0.969332
871084599,0.006035,-0.034023,0.011220,-0.254714,0.043128,0.965038
871087104,0.128004,-0.033495,-0.049846,-0.253940,0.037957,0.960018
871089609,0.188914,-0.033358,-0.050071,-0.254680,0.039439,0.961442
871092114,0.127855,-0.033749,0.010769,-0.254000,0.043131,0.965780
871094619,0.006035,-0.034023,0.011220,-0.255547,0.043940,0.971566
871097125,-0.055024,-0.034415,0.072060,-0.256278,0.041750,0.970851
871099630,-0.054961,-0.095234,0.071635,-0.254762,0.048294,0.970071
871102135,0.005949,-0.095097,0.071409,-0.252484,0.049675,0.965000
871104640,0.005949,-0.095097,0.071409,-0.252499,0.044552,0.963606
871107146,-0.055087,0.026403,0.072485,-0.254765,0.044630,0.968660
871109651,-0.115911,0.087340,0.012520,-0.255458,0.042413,0.965761
871112156,-0.115911,0.087340,0.012520,-0.257641,0.040234,0.965017
871114662,-0.054789,0.026913,-0.048745,-0.256986,0.042476,0.970100
871117167,0.006419,0.027559,-0.170200,-0.258420,0.043209,0.969335
871119672,0.006482,-0.033259,-0.170625,-0.256229,0.043183,0.968649
871122177,0.067392,-0.033122,-0.170851,-0.256081,0.047482,0.962044
871124683,0.067243,-0.033377,-0.110236,-0.259786,0.046095,0.965632
871127188,0.067307,-0.094195,-0.110661,-0.257659,0.039514,0.965754
871129694,0.006248,-0.094587,-0.049821,-0.254031,0.042419,0.967245
871132199,0.006035,-0.034023,0.011220,-0.252580,0.043874,0.967983
871134704,-0.055150,0.087222,0.072910,-0.253962,0.041638,0.962886
871137209,-0.055150,0.087222,0.072910,-0.254000,0.043131,0.965780
871139715,-0.055214,0.148040,0.073335,-0.251871,0.041680,0.968024
871142220,0.005760,0.087359,0.072685,-0.254005,0.040934,0.965078
871144725,-0.055150,0.087222,0.072910,-0.253310,0.040216,0.966557
871147230,0.005823,0.026540,0.072260,-0.253373,0.040259,0.970197
871149736,0.066733,0.026677,0.072034,-0.256974,0.043935,0.970082
871152241,0.066733,0.026677,0.072034,-0.253275,0.044592,0.966504
871154746,0.127706,-0.034004,0.071384,-0.253263,0.044584,0.965776
871157251,0.066647,-0.034396,0.132224,-0.255521,0.042456,0.969400
871159757,0.066859,-0.094960,0.071184,-0.253291,0.040937,0.965820
871162262,0.067072,-0.155523,0.010144,-0.251089,0.042370,0.965117
871164767,0.128216,-0.094058,-0.110886,-0.256198,0.043895,0.967185
871167272,0.128153,-0.033240,-0.110461,-0.254676,0.043103,0.962854
871169778,0.067031,0.027187,-0.049196,-0.254731,0.040940,0.965064
871172283,0.006058,0.087868,-0.048545,-0.256161,0.045337,0.965711
871174788,-0.115699,0.026776,-0.048520,-0.252495,0.046749,0.964307
871177294,-0.176546,-0.034180,-0.048720,-0.250337,0.040879,0.962965
871179799,-0.115785,-0.034297,0.011670,-0.253223,0.041624,0.962172
871182304,-0.115848,0.026521,0.012095,-0.256917,0.043163,0.966451
871184809,-0.176758,0.026384,0.012321,-0.253960,0.040171,0.962175
871187315,-0.176758,0.026384,0.012321,-0.253928,0.039416,0.960000
871189820,-0.176758,0.026384,0.012321,-0.254645,0.043815,0.961389
871192325,-0.055150,0.087222,0.072910,-0.254688,0.041644,0.962872
871194830,0.066521,0.087241,0.133075,-0.256228,0.041715,0.967939
871197336,0.066733,0.026677,0.072034,-0.254012,0.041672,0.965797
871199841,0.066882,0.026932,0.011419,-0.256947,0.040983,0.967206
871202346,0.006121,0.027050,-0.048970,-0.253990,0.046057,0.966472
871204852,-0.054703,0.087986,-0.108935,-0.255453,0.043143,0.965752
871207357,-0.115550,0.027031,-0.109135,-0.256905,0.043154,0.965724
871209862,-0.115423,-0.094606,-0.109985,-0.256931,0.044639,0.967890
871212368,0.067284,-0.216087,-0.050896,-0.262005,0.042475,0.966362
871214873,0.188892,-0.155249,0.009693,-0.252546,0.040185,0.964387
871217378,0.249738,-0.094294,0.009893,-0.251710,0.044504,0.959980
871219884,0.249887,-0.094039,-0.050722,-0.256211,0.043904,0.967913
871222388,0.188977,-0.094176,-0.050496,-0.259864,0.041015,0.967878
871224894,0.188977,-0.094176,-0.050496,-0.253982,0.043852,0.965043
871227399,0.127855,-0.033749,0.010769,-0.252581,0.045342,0.968693
871229904,0.066733,0.026677,0.072034,-0.256173,0.043878,0.965729
871232410,0.066733,0.026677,0.072034,-0.258406,0.041733,0.967897
871234915,0.066670,0.087496,0.072460,-0.255514,0.041718,0.968681
871237420,0.066819,0.087750,0.011845,-0.249627,0.045284,0.965837
871239925,0.066882,0.026932,0.011419,-0.253971,0.045311,0.965025
871242431,0.006184,-0.033769,-0.049395,-0.254733,0.043875,0.966485
871244936,0.006035,-0.034023,0.011220,-0.253995,0.043860,0.965771
871247441,0.005886,-0.034278,0.071835,-0.254808,0.042459,0.970142
871249947,0.127706,-0.034004,0.071384,-0.258381,0.041716,0.966441
871252452,0.188851,0.027461,-0.049646,-0.260574,0.044677,0.968547
871254969,0.127878,0.088142,-0.048996,-0.254026,0.043148,0.967236
871257462,0.067117,0.088260,-0.109385,-0.256937,0.043909,0.967899
871259968,0.067031,0.027187,-0.049196,-0.254053,0.038034,0.966570
871262473,0.066796,-0.034141,0.071609,-0.260576,0.039545,0.966426
871264978,0.066647,-0.034396,0.132224,-0.260543,0.037323,0.963541
871267484,-0.055385,0.025894,0.193715,-0.251914,0.039509,0.969506
871269989,-0.116146,0.026011,0.133325,-0.251898,0.043165,0.970190
871272494,-0.116060,0.087085,0.073135,-0.254714,0.043128,0.965038
871274999,-0.055150,0.087222,0.072910,-0.257562,0.043847,0.962061
871277505,0.005674,0.026285,0.132875,-0.259753,0.043873,0.962747
871280010,0.066710,-0.095215,0.131799,-0.254660,0.046758,0.963537
871282515,0.066859,-0.094960,0.071184,-0.250376,0.042372,0.965859
871285020,0.005800,-0.095352,0.132024,-0.250411,0.039463,0.966622
871287526,0.066584,0.026422,0.132649,-0.258395,0.043192,0.967879
871290031,0.066584,0.026422,0.132649,-0.255462,0.046815,0.967891
871292536,0.066606,0.148314,0.072885,-0.254798,0.038786,0.968003
871295042,-0.055001,0.087477,0.012295,-0.253331,0.035832,0.965883
871297547,-0.115613,0.087849,-0.108710,-0.255499,0.038775,0.966533
871300052,-0.115825,0.148413,-0.047669,-0.254745,0.042416,0.966502
871302557,-0.115974,0.148158,0.012946,-0.254720,0.042399,0.965047
871305063,-0.055001,0.087477,0.012295,-0.252528,0.040906,0.963651
871307568,-0.054726,-0.033906,-0.049170,-0.251868,0.045344,0.969435
871310073,-0.054513,-0.094469,-0.110210,-0.251854,0.043868,0.967997
871312578,-0.054513,-0.094469,-0.110210,-0.256205,0.044633,0.967904
871315084,0.006098,-0.094842,0.010794,-0.255423,0.045322,0.964997
871317589,0.127706,-0.034004,0.071384,-0.256224,0.045379,0.969351
871320094,0.188318,-0.034377,0.192389,-0.257636,0.042431,0.965718
871322600,0.188530,-0.094941,0.131349,-0.256957,0.046123,0.970056
871325105,0.127769,-0.094823,0.070959,-0.254082,0.042453,0.970156
871327610,0.067008,-0.094705,0.010569,-0.258387,0.040987,0.966450
871330115,0.066882,0.026932,0.011419,-0.257585,0.040930,0.962096
871332621,0.066819,0.087750,0.011845,-0.256177,0.041681,0.965027
871335126,0.005972,0.026795,0.011645,-0.259043,0.048278,0.965619
871337631,0.005823,0.026540,0.072260,-0.256209,0.042436,0.967202
871340136,-0.054938,0.026658,0.011870,-0.255478,0.043160,0.967207
871342642,-0.054789,0.026913,-0.048745,-0.255440,0.043134,0.965024
871345147,-0.054789,0.026913,-0.048745,-0.256177,0.041681,0.965027
871347653,0.066733,0.026677,0.072034,-0.260572,0.041742,0.967127
871350158,0.066584,0.026422,0.132649,-0.259858,0.041745,0.967869
871352663,0.005611,0.087104,0.133300,-0.255467,0.038020,0.964358
871355168,-0.054938,0.026658,0.011870,-0.254754,0.046088,0.968642
871357674,-0.055001,0.087477,0.012295,-0.255451,0.041675,0.965041
871360179,0.066968,0.088005,-0.048770,-0.258334,0.046084,0.965660
871362684,0.066904,0.148824,-0.048345,-0.254729,0.046071,0.967186
871365189,0.067180,0.027442,-0.109811,-0.251145,0.041675,0.968038
871367695,0.067031,0.027187,-0.049196,-0.252544,0.045316,0.966509
871370200,0.066945,-0.033886,0.010994,-0.253319,0.043889,0.968697
871372705,0.005823,0.026540,0.072260,-0.256197,0.042428,0.966474
871375211,0.005674,0.026285,0.132875,-0.256295,0.039562,0.970878
871377716,-0.115997,0.026266,0.072710,-0.256922,0.040966,0.965750
871380221,-0.115997,0.026266,0.072710,-0.254632,0.042339,0.959951
871382726,-0.115848,0.026521,0.012095,-0.257679,0.040260,0.967201
871385232,-0.055173,-0.034670,0.132675,-0.254763,0.041695,0.967239
871387737,0.066710,-0.095215,0.131799,-0.250377,0.043840,0.966569
871390242,0.127620,-0.095078,0.131574,-0.256099,0.045294,0.962071
871392747,0.127769,-0.094823,0.070959,-0.256889,0.046810,0.966407
871395253,0.127769,-0.094823,0.070959,-0.252586,0.043145,0.967992
871397758,0.127706,-0.034004,0.071384,-0.255425,0.040191,0.962875
871400263,0.127855,-0.033749,0.010769,-0.257538,0.045297,0.961315
871402768,0.067094,-0.033632,-0.049621,-0.254638,0.043077,0.960670
871405274,0.006121,0.027050,-0.048970,-0.253286,0.041666,0.965812
871407779,0.006121,0.027050,-0.048970,-0.259185,0.044708,0.972215
871410284,0.005972,0.026795,0.011645,-0.257590,0.046799,0.964937
871412789,0.005972,0.026795,0.011645,-0.253891,0.047456,0.961359
871415295,0.005972,0.026795,0.011645,-0.256185,0.043886,0.966457
871417800,0.005886,-0.034278,0.071835,-0.256852,0.040186,0.961391
871420305,0.005800,-0.095352,0.132024,-0.259814,0.040981,0.964966
871422811,0.005864,-0.156170,0.131599,-0.257655,0.041710,0.966455
871425316,0.006013,-0.155915,0.070984,-0.255512,0.038784,0.967261
871427821,-0.054812,-0.094979,0.011020,-0.256947,0.040983,0.967206
871430326,-0.176609,0.026639,-0.048294,-0.254023,0.040214,0.965815
871432832,-0.237433,0.087575,-0.108259,-0.252522,0.041635,0.963642
871435337,-0.115676,0.148668,-0.108284,-0.253221,0.046755,0.964293
871437842,0.006058,0.087868,-0.048545,-0.253975,0.043114,0.964324
871440347,0.066882,0.026932,0.011419,-0.252546,0.040185,0.964387
871442853,0.006035,-0.034023,0.011220,-0.256191,0.043157,0.966466
871445358,0.006248,-0.094587,-0.049821,-0.256862,0.045325,0.964241
871447863,-0.054577,-0.033651,-0.109785,-0.258321,0.046075,0.964932
871450369,-0.054726,-0.033906,-0.049170,-0.256194,0.046092,0.967886
871452874,-0.115762,0.087594,-0.048095,-0.253257,0.045313,0.965767
871455379,-0.115762,0.087594,-0.048095,-0.256142,0.044590,0.964264
871457884,0.005909,0.087613,0.012070,-0.255466,0.044619,0.967190
871460390,0.127706,-0.034004,0.071384,-0.254702,0.044587,0.965020
871462895,0.188679,-0.094686,0.070734,-0.254662,0.041627,0.961416
871465400,0.127769,-0.094823,0.070959,-0.257631,0.043160,0.965710
871467906,0.067072,-0.155523,0.010144,-0.258376,0.043913,0.967142
871470411,0.006374,-0.216224,-0.050671,-0.259094,0.041713,0.965699
871472916,0.006374,-0.216224,-0.050671,-0.255482,0.040963,0.966506
871475421,0.006225,-0.216479,0.009944,-0.255471,0.042422,0.966488
871477927,0.066986,-0.216597,0.070334,-0.255398,0.045305,0.963541
871480432,0.066859,-0.094960,0.071184,-0.255384,0.043829,0.962103
871482938,0.006035,-0.034023,0.011220,-0.258326,0.043878,0.964231
871485443,0.005972,0.026795,0.011645,-0.259095,0.043181,0.966409
871487948,0.005909,0.087613,0.012070,-0.254032,0.043886,0.967955
871490453,0.005909,0.087613,0.012070,-0.253298,0.041675,0.966540
871492958,0.005909,0.087613,0.012070,-0.252591,0.040948,0.967290
871495463,-0.055087,0.026403,0.072485,-0.255472,0.043889,0.967199
871497969,-0.055087,0.026403,0.072485,-0.256905,0.043154,0.965724
871500474,0.005972,0.026795,0.011645,-0.255459,0.043881,0.966471
871502979,0.127792,0.027069,0.011194,-0.254728,0.044604,0.966476
871505485,0.188765,-0.033612,0.010544,-0.254736,0.046809,0.967905
871507990,0.188765,-0.033612,0.010544,-0.253331,0.043897,0.969425
871510495,0.128004,-0.033495,-0.049846,-0.254051,0.043165,0.968692
871513001,0.128004,-0.033495,-0.049846,-0.256177,0.041681,0.965027
871515506,0.128153,-0.033240,-0.110461,-0.257000,0.043952,0.971538
871518011,0.127941,0.027324,-0.049421,-0.257707,0.044679,0.970787
871520516,0.188851,0.027461,-0.049646,-0.256261,0.043938,0.970824
871523022,0.249463,0.027088,0.071359,-0.255602,0.041778,0.973777
871525527,0.188553,0.026951,0.071584,-0.255520,0.040989,0.968690
871528032,0.188404,0.026696,0.132199,-0.255422,0.043855,0.964287
871530538,0.127557,-0.034259,0.131999,-0.254027,0.044615,0.967946
871533061,0.066773,-0.156033,0.131374,-0.254753,0.044621,0.967932
871535553,0.066837,-0.216851,0.130949,-0.254012,0.041672,0.965797
871538054,0.066923,-0.155778,0.070759,-0.254724,0.040202,0.964345
871540559,0.127494,0.026559,0.132424,-0.256854,0.043120,0.962812
871543064,0.066606,0.148314,0.072885,-0.256900,0.045351,0.966425
871545569,0.066543,0.209133,0.073310,-0.258337,0.042420,0.964248
871548074,-0.054915,0.148550,-0.047895,-0.259752,0.042406,0.962036
871550580,-0.054852,0.087731,-0.048320,-0.256918,0.044630,0.967162
871553085,-0.054789,0.026913,-0.048745,-0.256212,0.045371,0.968623
871555590,0.006121,0.027050,-0.048970,-0.257601,0.045340,0.964955
871558095,-0.054789,0.026913,-0.048745,-0.256068,0.046006,0.960606
871560601,-0.115762,0.087594,-0.048095,-0.254616,0.045995,0.960634
871563106,-0.055001,0.087477,0.012295,-0.254726,0.043137,0.965766
871565611,-0.055001,0.087477,0.012295,-0.255496,0.042439,0.967944
871568117,0.005823,0.026540,0.072260,-0.256924,0.043901,0.967171
871570622,0.066796,-0.034141,0.071609,-0.259834,0.043195,0.967123
871573127,0.127706,-0.034004,0.071384,-0.257649,0.042439,0.966446
871575632,0.188702,0.027206,0.010969,-0.252530,0.043840,0.965071
871578138,0.127941,0.027324,-0.049421,-0.253280,0.042396,0.965803
871580643,0.066968,0.088005,-0.048770,-0.252610,0.041695,0.968737
871583148,-0.055001,0.087477,0.012295,-0.255497,0.043906,0.968655
871585653,-0.116060,0.087085,0.073135,-0.258356,0.041699,0.964985
871588159,-0.177119,0.086693,0.133976,-0.257666,0.040251,0.966473
871590664,-0.116209,0.086830,0.133750,-0.255510,0.043915,0.969383
871593169,-0.116060,0.087085,0.073135,-0.254032,0.043886,0.967955
871595676,-0.115762,0.087594,-0.048095,-0.255416,0.044584,0.964278
871598180,-0.054703,0.087986,-0.108935,-0.253984,0.046786,0.966463
871600685,0.006207,0.088123,-0.109160,-0.251826,0.047515,0.967952
871603191,0.005972,0.026795,0.011645,-0.256111,0.045302,0.962799
871605696,0.005972,0.026795,0.011645,-0.257599,0.042405,0.963534
871608201,0.005823,0.026540,0.072260,-0.256917,0.043163,0.966451
871610706,0.005611,0.087104,0.133300,-0.254732,0.042408,0.965775
871613212,0.066521,0.087241,0.133075,-0.254757,0.042425,0.967230
871615717,-0.055150,0.087222,0.072910,-0.254782,0.042442,0.968686
871618222,-0.115911,0.087340,0.012520,-0.253330,0.042430,0.968714
871620728,-0.054852,0.087731,-0.048320,-0.252635,0.041712,0.970193
871623233,0.005972,0.026795,0.011645,-0.254772,0.045368,0.969379
871625738,0.127855,-0.033749,0.010769,-0.255479,0.044627,0.967918
871628243,0.067157,-0.094450,-0.050046,-0.256227,0.040248,0.967229
871630749,0.006397,-0.094332,-0.110436,-0.256929,0.041704,0.966469
871633254,-0.176396,-0.033925,-0.109335,-0.257630,0.041693,0.964999
871635759,-0.237370,0.026757,-0.108684,-0.254724,0.040202,0.964345
871638264,-0.115636,-0.034043,-0.048945,-0.255439,0.041667,0.964314
871640770,0.006121,0.027050,-0.048970,-0.256934,0.040975,0.966478
871643275,0.127792,0.027069,0.011194,-0.256961,0.042459,0.968644
871645780,0.127580,0.087633,0.072234,-0.254705,0.047522,0.966440
871648285,0.127430,0.087378,0.132849,-0.254685,0.046775,0.964993
871650791,0.127494,0.026559,0.132424,-0.255447,0.043872,0.965743
871653296,0.188616,-0.033867,0.071159,-0.255446,0.042405,0.965033
871655801,0.188892,-0.155249,0.009693,-0.255458,0.042413,0.965761
871658306,0.188955,-0.216068,0.009268,-0.254757,0.042425,0.967230
871660812,0.188742,-0.155504,0.070308,-0.255489,0.041701,0.967225
871663317,0.127918,-0.094568,0.010344,-0.256172,0.042411,0.965019
871665822,0.066796,-0.034141,0.071609,-0.256134,0.042385,0.962835
871668327,0.005909,0.087613,0.012070,-0.256859,0.040924,0.962110
871670833,0.066606,0.148314,0.072885,-0.258310,0.039468,0.961372
871673338,0.005909,0.087613,0.012070,-0.255431,0.039462,0.962884
871675844,-0.055087,0.026403,0.072485,-0.253963,0.043105,0.963596
871678349,0.005886,-0.034278,0.071835,-0.254693,0.040915,0.962880
871680854,0.067157,-0.094450,-0.050046,-0.254680,0.039439,0.961442
871683359,0.128004,-0.033495,-0.049846,-0.256197,0.042428,0.966474
871685864,0.128004,-0.033495,-0.049846,-0.254757,0.042425,0.967230
871688370,0.127643,0.026814,0.071809,-0.255445,0.040938,0.964322
871690875,0.127792,0.027069,0.011194,-0.254713,0.041661,0.964328
871693380,0.066670,0.087496,0.072460,-0.256141,0.043123,0.963554
871695886,0.066670,0.087496,0.072460,-0.259783,0.041694,0.963501
871698391,0.127281,0.087123,0.193464,-0.257604,0.041676,0.963543
871700896,0.127281,0.087123,0.193464,-0.256229,0.043183,0.968649
871703401,0.066584,0.026422,0.132649,-0.256230,0.044650,0.969360
871705907,0.006035,-0.034023,0.011220,-0.254760,0.045359,0.968651
871708418,-0.054599,-0.155542,-0.050020,-0.254767,0.046097,0.969370
871710917,-0.054662,-0.094724,-0.049595,-0.256894,0.046080,0.966416
871713423,0.006397,-0.094332,-0.110436,-0.254763,0.041695,0.967239
871715928,0.006270,0.027305,-0.109585,-0.256299,0.043963,0.973008
871718433,0.066968,0.088005,-0.048770,-0.257675,0.043924,0.968612
871720938,0.066819,0.087750,0.011845,-0.256909,0.040958,0.965022
871723450,0.066882,0.026932,0.011419,-0.255464,0.041684,0.965769
871725949,-0.054812,-0.094979,0.011020,-0.253289,0.046068,0.967942
871728454,-0.115785,-0.034297,0.011670,-0.254808,0.042459,0.970142
871730959,-0.115848,0.026521,0.012095,-0.258423,0.039545,0.967924
871733465,-0.054852,0.087731,-0.048320,-0.259087,0.040975,0.964980
871735970,0.006270,0.027305,-0.109585,-0.255427,0.043126,0.964296
871738475,0.006035,-0.034023,0.011220,-0.250381,0.041643,0.965868
871740980,0.067008,-0.094705,0.010569,-0.252499,0.044552,0.963606
871743486,0.127982,-0.155386,0.009919,-0.259736,0.046061,0.962720
871745991,0.067221,-0.155268,-0.050471,-0.260495,0.048289,0.965591
871748496,0.006035,-0.034023,0.011220,-0.256173,0.043878,0.965729
871751002,-0.054938,0.026658,0.011870,-0.255501,0.040242,0.967243
871753507,-0.055001,0.087477,0.012295,-0.256213,0.038772,0.965791
871756012,0.005972,0.026795,0.011645,-0.259081,0.040237,0.964261
871758517,0.066945,-0.033886,0.010994,-0.254652,0.044553,0.962108
871761023,0.067008,-0.094705,0.010569,-0.251073,0.046025,0.965800
871763528,0.006162,-0.155660,0.010369,-0.254784,0.043909,0.969397
871766033,-0.054748,-0.155797,0.010595,-0.253956,0.042367,0.962877
871768539,-0.176568,-0.156071,0.011045,-0.254642,0.047479,0.962800
871771044,-0.115785,-0.034297,0.011670,-0.256907,0.046089,0.967144
871773549,-0.054875,-0.034160,0.011445,-0.253315,0.039487,0.966566
871776054,-0.054577,-0.033651,-0.109785,-0.252533,0.040176,0.963659
871778562,0.006333,-0.033514,-0.110010,-0.256155,0.044599,0.964992
871781065,0.067243,-0.033377,-0.110236,-0.257638,0.043898,0.966429
871783570,0.127855,-0.033749,0.010769,-0.257578,0.040192,0.961377
871786075,0.127706,-0.034004,0.071384,-0.254754,0.038023,0.965100
871788581,0.005823,0.026540,0.072260,-0.257710,0.039548,0.968666
871791086,0.005823,0.026540,0.072260,-0.256176,0.040214,0.964317
871793591,-0.054938,0.026658,0.011870,-0.256141,0.043123,0.963554
871796097,0.006121,0.027050,-0.048970,-0.254739,0.043145,0.966494
871798602,0.006333,-0.033514,-0.110010,-0.253970,0.043843,0.964315
871801107,0.067094,-0.033632,-0.049621,-0.254002,0.044598,0.966490
871803612,0.067008,-0.094705,0.010569,-0.256222,0.042445,0.967930
871806118,0.005949,-0.095097,0.071409,-0.254792,0.038048,0.967284
871808623,-0.054961,-0.095234,0.071635,-0.256227,0.040248,0.967229
871811128,-0.054897,-0.156052,0.071210,-0.257663,0.043915,0.967884
871813634,-0.115871,-0.095371,0.071860,-0.257638,0.043898,0.966429
871816139,-0.115997,0.026266,0.072710,-0.254024,0.041681,0.966525
871818644,-0.115911,0.087340,0.012520,-0.257005,0.043223,0.971547
871821151,-0.055001,0.087477,0.012295,-0.259102,0.043918,0.967128
871823655,0.005823,0.026540,0.072260,-0.254726,0.043137,0.965766
871826160,0.066945,-0.033886,0.010994,-0.250344,0.041617,0.963684
871828665,0.067031,0.027187,-0.049196,-0.254004,0.039467,0.964368
871831170,0.067243,-0.033377,-0.110236,-0.256279,0.043217,0.971561
871833676,0.188914,-0.033358,-0.050071,-0.256886,0.043875,0.964987
871836181,0.249589,-0.094549,0.070508,-0.256837,0.045308,0.962785
871838686,0.249738,-0.094294,0.009893,-0.258368,0.041707,0.965713
871841191,0.188914,-0.033358,-0.050071,-0.259102,0.043918,0.967128
871843697,0.067180,0.027442,-0.109811,-0.256910,0.042425,0.965732
871846202,-0.054703,0.087986,-0.108935,-0.257675,0.043924,0.968612
871848707,-0.176586,0.148531,-0.108059,-0.255537,0.038801,0.968717
871851213,-0.237794,0.147884,0.013396,-0.251853,0.042401,0.967287
871853718,-0.176907,0.026129,0.072936,-0.253336,0.041701,0.968723
871856223,-0.176780,-0.095508,0.072085,-0.251838,0.039458,0.965138
871858729,-0.054812,-0.094979,0.011020,-0.251821,0.041646,0.965112
871861234,0.006184,-0.033769,-0.049395,-0.258350,0.042428,0.964976
871863739,0.067031,0.027187,-0.049196,-0.257595,0.046069,0.964946
871866245,0.066819,0.087750,0.011845,-0.259102,0.043918,0.967128
871868750,0.066606,0.148314,0.072885,-0.258396,0.044659,0.968590
871871255,0.005696,0.148177,0.073110,-0.257647,0.047571,0.968568
871873760,-0.115974,0.148158,0.012946,-0.254726,0.043137,0.965766
871876266,-0.115825,0.148413,-0.047669,-0.256899,0.043884,0.965715
871878771,-0.115911,0.087340,0.012520,-0.253296,0.046806,0.968661
871881276,-0.055024,-0.034415,0.072060,-0.253301,0.044610,0.967960
871883781,0.005886,-0.034278,0.071835,-0.255552,0.041744,0.970865
871886287,0.066945,-0.033886,0.010994,-0.255438,0.040200,0.963603
871888792,0.067157,-0.094450,-0.050046,-0.247519,0.039449,0.967406
871891297,0.128004,-0.033495,-0.049846,-0.254051,0.043165,0.968692
871893802,0.188765,-0.033612,0.010544,-0.256972,0.041001,0.968662
871896308,0.127643,0.026814,0.071809,-0.257712,0.042482,0.970086
871898813,0.127430,0.087378,0.132849,-0.256977,0.046870,0.971503
871901318,0.066371,0.086986,0.193690,-0.251244,0.038808,0.972441
871903824,0.127345,0.026305,0.193039,-0.257662,0.042448,0.967174
871906329,0.066733,0.026677,0.072034,-0.256140,0.041656,0.962843
871908834,0.067031,0.027187,-0.049196,-0.251108,0.041649,0.965854
871911339,0.006270,0.027305,-0.109585,-0.251050,0.048942,0.965765
871913844,0.006270,0.027305,-0.109585,-0.251102,0.042378,0.965845
871916350,0.006184,-0.033769,-0.049395,-0.258419,0.041742,0.968625
871918855,-0.054875,-0.034160,0.011445,-0.256192,0.044624,0.967176
871921360,0.005949,-0.095097,0.071409,-0.256175,0.046812,0.967149
871923866,0.128004,-0.033495,-0.049846,-0.257729,0.040294,0.970113
871926371,0.249761,0.027598,-0.049871,-0.253461,0.040319,0.975293
871928876,0.310946,-0.093647,-0.111562,-0.254847,0.043952,0.973036
871931381,0.250100,-0.154603,-0.111762,-0.252609,0.040228,0.968027
871933887,0.188977,-0.094176,-0.050496,-0.251803,0.042367,0.964375
871936392,0.066882,0.026932,0.011419,-0.259045,0.043146,0.963498
871938897,-0.115997,0.026266,0.072710,-0.259121,0.043198,0.967865
871941402,-0.237754,-0.034826,0.072736,-0.253994,0.042393,0.965061
871943908,-0.237605,-0.034571,0.012121,-0.253141,0.040835,0.957085
871946413,-0.176482,-0.094998,-0.049145,-0.253256,0.043846,0.965057
871948918,-0.054662,-0.094724,-0.049595,-0.256187,0.045354,0.967167
871951424,0.006248,-0.094587,-0.049821,-0.256881,0.044605,0.964978
871953929,0.005972,0.026795,0.011645,-0.254752,0.043154,0.967222
871956434,0.066670,0.087496,0.072460,-0.256843,0.044579,0.962794
871958940,0.066819,0.087750,0.011845,-0.254027,0.044615,0.967946
871961445,0.067031,0.027187,-0.049196,-0.253990,0.046057,0.966472
871963950,0.067031,0.027187,-0.049196,-0.256223,0.043912,0.968641
871966455,0.006184,-0.033769,-0.049395,-0.254789,0.043180,0.969405
871968961,-0.054726,-0.033906,-0.049170,-0.252728,0.039575,0.974588
871971466,-0.115636,-0.034043,-0.048945,-0.254787,0.040245,0.967985
871973971,-0.054938,0.026658,0.011870,-0.258423,0.039545,0.967924
871976476,0.005696,0.148177,0.073110,-0.258380,0.040249,0.965731
871978982,0.066521,0.087241,0.133075,-0.251688,0.040823,0.957113
871981487,0.127580,0.087633,0.072234,-0.252492,0.043814,0.962887
871983993,0.127706,-0.034004,0.071384,-0.254735,0.045342,0.967195
871986498,0.127706,-0.034004,0.071384,-0.255473,0.045356,0.967909
871989003,0.066945,-0.033886,0.010994,-0.258395,0.043192,0.967879
871991508,0.128004,-0.033495,-0.049846,-0.257625,0.043890,0.965701
871994013,0.127941,0.027324,-0.049421,-0.251074,0.047492,0.966510
871996519,0.188702,0.027206,0.010969,-0.251866,0.042410,0.968015
871999024,0.127729,0.087887,0.011619,-0.257729,0.040294,0.970113
872001529,0.127729,0.087887,0.011619,-0.259133,0.043206,0.968593
872004034,0.127729,0.087887,0.011619,-0.253289,0.046068,0.967942
872006540,0.005972,0.026795,0.011645,-0.254752,0.043154,0.967222
872009045,-0.054938,0.026658,0.011870,-0.260527,0.040979,0.964224
872011550,-0.115911,0.087340,0.012520,-0.256227,0.040248,0.967229
872014056,-0.055001,0.087477,0.012295,-0.253311,0.041684,0.967267
872016561,-0.054703,0.087986,-0.108935,-0.259076,0.042434,0.964962
872019066,-0.054640,0.027168,-0.109360,-0.253935,0.040154,0.960720
872021571,-0.054662,-0.094724,-0.049595,-0.256832,0.046038,0.962776
872024077,-0.115721,-0.095116,0.011245,-0.252569,0.045333,0.967965
872026582,-0.176780,-0.095508,0.072085,-0.253336,0.041701,0.968723
872029087,-0.176758,0.026384,0.012321,-0.253981,0.042385,0.964333
872031593,0.006035,-0.034023,0.011220,-0.251782,0.040153,0.962218
872034098,0.067094,-0.033632,-0.049621,-0.253287,0.043134,0.966522
872036603,0.127918,-0.094568,0.010344,-0.256961,0.042459,0.968644
872039108,0.067008,-0.094705,0.010569,-0.258395,0.043192,0.967879
872041614,-0.054897,-0.156052,0.071210,-0.253963,0.043105,0.963596
872044119,-0.054961,-0.095234,0.071635,-0.252529,0.042373,0.964361
872046624,-0.055024,-0.034415,0.072060,-0.256910,0.042425,0.965732
872049129,0.066733,0.026677,0.072034,-0.257662,0.042448,0.967174
872051635,0.066733,0.026677,0.072034,-0.254697,0.045316,0.965011
872054140,0.066733,0.026677,0.072034,-0.255427,0.043126,0.964296
872056645,0.005674,0.026285,0.132875,-0.256962,0.043927,0.969354
872059151,0.066945,-0.033886,0.010994,-0.255402,0.043109,0.962840
872061656,0.127918,-0.094568,0.010344,-0.256158,0.040935,0.963580
872064161,0.188914,-0.033358,-0.050071,-0.254069,0.042444,0.969428
872066666,0.249824,-0.033221,-0.050297,-0.254782,0.042442,0.968686
872069172,0.188765,-0.033612,0.010544,-0.251851,0.039467,0.965866
872071677,0.066882,0.026932,0.011419,-0.252589,0.039481,0.966580
872074182,-0.055024,-0.034415,0.072060,-0.255470,0.040955,0.965778
872076687,-0.055236,0.026148,0.133100,-0.255478,0.043160,0.967207
872079193,-0.116146,0.026011,0.133325,-0.257000,0.043952,0.971538
872081698,-0.115911,0.087340,0.012520,-0.254039,0.044624,0.968674
872084203,0.067031,0.027187,-0.049196,-0.248888,0.045270,0.965123
872086709,0.249675,-0.033475,0.010318,-0.251846,0.041663,0.966568
872089214,0.310436,-0.033593,0.070708,-0.255494,0.039504,0.966524
872091719,0.249675,-0.033475,0.010318,-0.252528,0.040906,0.963651
872094224,0.067094,-0.033632,-0.049621,-0.251783,0.041621,0.962928
872096730,-0.054938,0.026658,0.011870,-0.255422,0.043855,0.964287
872099235,-0.115911,0.087340,0.012520,-0.259053,0.045352,0.964927
872101740,-0.115974,0.148158,0.012946,-0.254692,0.047513,0.965712
872104246,-0.055001,0.087477,0.012295,-0.256965,0.040263,0.967943
872106751,0.005823,0.026540,0.072260,-0.255501,0.040242,0.967243
872109256,0.066647,-0.034396,0.132224,-0.253981,0.042385,0.964333
872111761,0.127643,0.026814,0.071809,-0.253243,0.043837,0.964329
872114267,0.127643,0.026814,0.071809,-0.257608,0.046078,0.965674
872116772,0.127706,-0.034004,0.071384,-0.254771,0.043900,0.968669
872119277,0.127769,-0.094823,0.070959,-0.255490,0.043168,0.967936
872121782,0.066796,-0.034141,0.071609,-0.251834,0.041655,0.965840
872124288,0.066796,-0.034141,0.071609,-0.254012,0.041672,0.965797
872126793,0.066882,0.026932,0.011419,-0.260565,0.041004,0.966408
872129298,0.066882,0.026932,0.011419,-0.254729,0.046071,0.967186
872131804,0.127792,0.027069,0.011194,-0.254699,0.048251,0.966431
872134309,0.188702,0.027206,0.010969,-0.254673,0.046767,0.964265
872136814,0.249824,-0.033221,-0.050297,-0.252517,0.043832,0.964343
872139319,0.188914,-0.033358,-0.050071,-0.255358,0.042345,0.959937
872141825,0.128067,-0.094313,-0.050271,-0.254011,0.040205,0.965087
872144330,0.128067,-0.094313,-0.050271,-0.253325,0.043159,0.968706
872146835,0.188892,-0.155249,0.009693,-0.253964,0.044573,0.964306
872149340,0.188977,-0.094176,-0.050496,-0.257697,0.039539,0.967938
872151846,0.188828,-0.094431,0.010119,-0.258485,0.038120,0.970853
872154351,0.127941,0.027324,-0.049421,-0.255527,0.041727,0.969409
872156856,0.067094,-0.033632,-0.049621,-0.253315,0.039487,0.966566
872159361,-0.054875,-0.034160,0.011445,-0.259093,0.040246,0.964989
872161870,-0.176695,-0.034434,0.011895,-0.257650,0.043907,0.967156
872164372,-0.176907,0.026129,0.072936,-0.254051,0.043165,0.968692
872166877,-0.115997,0.026266,0.072710,-0.256240,0.041724,0.968667
872169382,0.005760,0.087359,0.072685,-0.256930,0.043172,0.967179
872171888,0.066819,0.087750,0.011845,-0.255457,0.040946,0.965050
872174393,0.127814,0.148961,-0.048571,-0.256885,0.042408,0.964277
872176899,0.127729,0.087887,0.011619,-0.254045,0.043895,0.968683
872179404,0.188851,0.027461,-0.049646,-0.254038,0.043157,0.967964
872181909,0.188977,-0.094176,-0.050496,-0.256136,0.045320,0.964255
872184414,0.189126,-0.093921,-0.111111,-0.256843,0.044579,0.962794
872186919,0.188914,-0.033358,-0.050071,-0.256155,0.044599,0.964992
872189425,0.067157,-0.094450,-0.050046,-0.256160,0.043869,0.965001
872191930,0.006035,-0.034023,0.011220,-0.254738,0.041678,0.965783
872194435,-0.054875,-0.034160,0.011445,-0.253275,0.044592,0.966504
872196941,0.005972,0.026795,0.011645,-0.251756,0.046735,0.963593
872199446,0.127792,0.027069,0.011194,-0.252560,0.041661,0.965826
872201951,0.188765,-0.033612,0.010544,-0.256191,0.043157,0.966466
872204457,0.188828,-0.094431,0.010119,-0.258284,0.046049,0.962748
872206962,0.127918,-0.094568,0.010344,-0.259780,0.046825,0.965623
872209467,0.128004,-0.033495,-0.049846,-0.258328,0.046813,0.965651
872211999,0.066882,0.026932,0.011419,-0.255378,0.044559,0.962094
872214492,0.066968,0.088005,-0.048770,-0.255453,0.043143,0.965752
872216988,0.066755,0.148569,0.012270,-0.259834,0.043195,0.967123
872219488,0.066819,0.087750,0.011845,-0.259817,0.045383,0.967097
872221993,0.066733,0.026677,0.072034,-0.256914,0.046827,0.967863
872224499,0.005823,0.026540,0.072260,-0.257589,0.045331,0.964227
872227004,-0.054812,-0.094979,0.011020,-0.257545,0.046035,0.962034
872229509,-0.115785,-0.034297,0.011670,-0.253966,0.047507,0.965726
872232015,-0.176609,0.026639,-0.048294,-0.253272,0.048256,0.967915
872234520,-0.176586,0.148531,-0.108059,-0.253223,0.049689,0.965714
872237025,-0.176586,0.148531,-0.108059,-0.255400,0.048240,0.964961
872239530,-0.176523,0.087712,-0.108484,-0.254691,0.046046,0.965002
872242036,-0.176460,0.026894,-0.108909,-0.254006,0.042402,0.965789
872244541,-0.176460,0.026894,-0.108909,-0.256198,0.043895,0.967185
872247046,-0.115550,0.027031,-0.109135,-0.256191,0.043157,0.966466
872249552,0.006270,0.027305,-0.109585,-0.255483,0.042430,0.967216
872252057,0.006121,0.027050,-0.048970,-0.254760,0.045359,0.968651
872254562,-0.055087,0.026403,0.072485,-0.253264,0.046051,0.966486
872257067,-0.115997,0.026266,0.072710,-0.252549,0.044587,0.966518
872259572,-0.115997,0.026266,0.072710,-0.252605,0.043891,0.969439
872262078,0.006121,0.027050,-0.048970,-0.253344,0.043906,0.970153
872264583,0.066882,0.026932,0.011419,-0.254782,0.042442,0.968686
872267088,0.127729,0.087887,0.011619,-0.253280,0.042396,0.965803
872269594,0.066521,0.087241,0.133075,-0.251846,0.041663,0.966568
872272099,0.005823,0.026540,0.072260,-0.252611,0.043162,0.969448
872274619,0.066945,-0.033886,0.010994,-0.256173,0.043878,0.965729
872277110,0.067221,-0.155268,-0.050471,-0.256856,0.044588,0.963522
872279615,0.067157,-0.094450,-0.050046,-0.254733,0.043875,0.966485
872282120,0.006248,-0.094587,-0.049821,-0.254056,0.042436,0.968700
872284625,-0.054875,-0.034160,0.011445,-0.256998,0.042485,0.970828
872287131,-0.054938,0.026658,0.011870,-0.256974,0.043935,0.970082
872289636,0.005823,0.026540,0.072260,-0.256173,0.043878,0.965729
872292141,0.005823,0.026540,0.072260,-0.256916,0.041696,0.965741
872294646,0.005886,-0.034278,0.071835,-0.255422,0.043855,0.964287
872297152,0.006248,-0.094587,-0.049821,-0.254715,0.044596,0.965748
872299657,0.006184,-0.033769,-0.049395,-0.255490,0.043168,0.967936
872302162,0.067117,0.088260,-0.109385,-0.254011,0.040205,0.965087
872304668,0.127963,0.149216,-0.109186,-0.254035,0.038755,0.965833
872307173,0.067117,0.088260,-0.109385,-0.256197,0.042428,0.966474
872309678,0.127941,0.027324,-0.049421,-0.256856,0.044588,0.963522
872312183,0.066796,-0.034141,0.071609,-0.256100,0.046761,0.962781
872314689,0.005737,-0.034533,0.132450,-0.256136,0.045320,0.964255
872317194,-0.055173,-0.034670,0.132675,-0.256881,0.044605,0.964978
872319699,-0.115934,-0.034552,0.072285,-0.259071,0.044631,0.965664
872322205,-0.115848,0.026521,0.012095,-0.259083,0.043172,0.965681
872324710,-0.054938,0.026658,0.011870,-0.256165,0.041673,0.964299
872327215,0.127643,0.026814,0.071809,-0.252541,0.042381,0.965089
872329720,0.249314,0.026833,0.131974,-0.251847,0.043131,0.967278
872332226,0.249314,0.026833,0.131974,-0.255466,0.044619,0.967190
872334731,0.127643,0.026814,0.071809,-0.254031,0.042419,0.967245
872337236,0.005909,0.087613,0.012070,-0.253293,0.042404,0.966531
872339741,-0.055065,0.148295,0.012720,-0.253982,0.043852,0.965043
872342247,-0.055065,0.148295,0.012720,-0.253964,0.044573,0.964306
872344752,-0.055001,0.087477,0.012295,-0.253982,0.043852,0.965043
872347257,-0.055001,0.087477,0.012295,-0.254031,0.042419,0.967245
872349762,-0.054938,0.026658,0.011870,-0.254749,0.040219,0.965801
872352268,-0.054789,0.026913,-0.048745,-0.256147,0.042394,0.963563
872354773,-0.054726,-0.033906,-0.049170,-0.253982,0.043852,0.965043
872357278,0.006121,0.027050,-0.048970,-0.254789,0.043180,0.969405
872359784,0.006121,0.027050,-0.048970,-0.256272,0.042479,0.970842
872362289,0.067031,0.027187,-0.049196,-0.255448,0.045339,0.966453
872364794,0.005972,0.026795,0.011645,-0.255437,0.046798,0.966435
872367299,0.005760,0.087359,0.072685,-0.255466,0.044619,0.967190
872369805,0.005547,0.147922,0.133725,-0.253975,0.043114,0.964324
872372310,-0.055150,0.087222,0.072910,-0.255447,0.043872,0.965743
872374815,-0.115699,0.026776,-0.048520,-0.258387,0.040987,0.966450
872377320,-0.054726,-0.033906,-0.049170,-0.254780,0.039507,0.967266
872379826,-0.054789,0.026913,-0.048745,-0.253305,0.042413,0.967259
872382331,0.006121,0.027050,-0.048970,-0.258345,0.044625,0.965678
872384836,-0.055001,0.087477,0.012295,-0.256876,0.046801,0.965679
872387344,-0.055150,0.087222,0.072910,-0.254014,0.044607,0.967218
872389847,-0.055150,0.087222,0.072910,-0.254675,0.041635,0.962144
872392352,-0.054938,0.026658,0.011870,-0.256153,0.043132,0.964282
872394857,-0.054875,-0.034160,0.011445,-0.257681,0.043194,0.968621
872397363,-0.115785,-0.034297,0.011670,-0.254029,0.039484,0.965824
872399868,-0.115487,-0.033788,-0.109560,-0.249618,0.041612,0.963698
872402373,-0.054342,0.027677,-0.230590,-0.253322,0.040225,0.967285
872404879,0.006419,0.027559,-0.170200,-0.253329,0.040963,0.968004
872407384,0.006207,0.088123,-0.109160,-0.248981,0.043133,0.969518
872409889,-0.055001,0.087477,0.012295,-0.254021,0.045345,0.967937
872412394,-0.115848,0.026521,0.012095,-0.256938,0.045377,0.968609
872414900,-0.115871,-0.095371,0.071860,-0.255458,0.042413,0.965761
872417405,-0.115871,-0.095371,0.071860,-0.259091,0.045377,0.967111
872419910,-0.055024,-0.034415,0.072060,-0.259084,0.044639,0.966392
872422415,-0.055087,0.026403,0.072485,-0.256213,0.038772,0.965791
872424921,-0.055024,-0.034415,0.072060,-0.252554,0.042390,0.965817
872427426,0.006035,-0.034023,0.011220,-0.252579,0.042407,0.967273
872429931,0.006184,-0.033769,-0.049395,-0.254793,0.039516,0.967994
872432436,0.066968,0.088005,-0.048770,-0.253306,0.043880,0.967969
872434942,0.066968,0.088005,-0.048770,-0.253295,0.045339,0.967951
872437447,0.067031,0.027187,-0.049196,-0.253287,0.043134,0.966522
872439953,0.067094,-0.033632,-0.049621,-0.254712,0.040194,0.963617
872442458,0.067094,-0.033632,-0.049621,-0.254744,0.040949,0.965792
872444963,0.067031,0.027187,-0.049196,-0.253286,0.041666,0.965812
872447468,0.005823,0.026540,0.072260,-0.253982,0.043852,0.965043
872449974,0.005972,0.026795,0.011645,-0.252532,0.046775,0.966491
872452479,0.005909,0.087613,0.012070,-0.251812,0.046039,0.966514
872454984,0.006058,0.087868,-0.048545,-0.254037,0.041689,0.967253
872457489,0.006121,0.027050,-0.048970,-0.253266,0.040920,0.964365
872459995,0.066859,-0.094960,0.071184,-0.253950,0.043097,0.962868
872462500,0.188616,-0.033867,0.071159,-0.251896,0.041697,0.969479
872465005,0.188679,-0.094686,0.070734,-0.251824,0.046048,0.967242
872467511,0.128131,-0.155132,-0.050696,-0.255511,0.045382,0.970093
872470016,0.006523,-0.215969,-0.111286,-0.257030,0.043240,0.973003
872472521,-0.054662,-0.094724,-0.049595,-0.257624,0.042422,0.964990
872475026,0.005909,0.087613,0.012070,-0.255416,0.044584,0.964278
872477532,0.066755,0.148569,0.012270,-0.256936,0.042442,0.967188
872480037,0.066670,0.087496,0.072460,-0.259093,0.040246,0.964989
872482542,0.066584,0.026422,0.132649,-0.258398,0.039528,0.966468
872485047,0.005823,0.026540,0.072260,-0.259099,0.039517,0.964998
872487553,-0.055087,0.026403,0.072485,-0.259865,0.042483,0.968588
872490058,-0.115636,-0.034043,-0.048945,-0.254031,0.042419,0.967245
872492563,-0.054726,-0.033906,-0.049170,-0.251094,0.040173,0.964416
872495069,0.128004,-0.033495,-0.049846,-0.254665,0.044561,0.962836
872497574,0.249463,0.027088,0.071359,-0.253257,0.045313,0.965767
872500079,0.249463,0.027088,0.071359,-0.255374,0.046755,0.962795
872502585,0.188702,0.027206,0.010969,-0.259822,0.043186,0.966395
872505090,0.188828,-0.094431,0.010119,-0.261319,0.045429,0.969980
872507595,0.127982,-0.155386,0.009919,-0.261337,0.043241,0.970007
872510100,0.127982,-0.155386,0.009919,-0.257662,0.042448,0.967174
872512606,0.066859,-0.094960,0.071184,-0.256954,0.041721,0.967925
872515110,0.066945,-0.033886,0.010994,-0.252586,0.043145,0.967992
872517616,0.006058,0.087868,-0.048545,-0.253274,0.043125,0.965794
872520121,0.006207,0.088123,-0.109160,-0.257586,0.042397,0.962807
872522627,0.006144,0.148942,-0.108735,-0.258344,0.043158,0.964967
872525132,0.127878,0.088142,-0.048996,-0.256197,0.042428,0.966474
872527637,0.188702,0.027206,0.010969,-0.254688,0.041644,0.962872
872530142,0.127855,-0.033749,0.010769,-0.255448,0.045339,0.966453
872532648,0.067031,0.027187,-0.049196,-0.255441,0.044601,0.965734
872535153,0.006058,0.087868,-0.048545,-0.254717,0.039464,0.963626
872537658,-0.054915,0.148550,-0.047895,-0.252611,0.043162,0.969448
872540164,-0.176948,0.208839,0.013596,-0.255538,0.040268,0.969427
872542669,-0.237921,0.269521,0.014246,-0.256974,0.035869,0.966540
872545174,-0.238070,0.269266,0.074861,-0.259081,0.040237,0.964261
872547679,-0.115974,0.148158,0.012946,-0.259028,0.045334,0.963471
872550185,0.006058,0.087868,-0.048545,-0.257643,0.043169,0.966437
872552690,0.006121,0.027050,-0.048970,-0.251159,0.043150,0.969476
872555195,-0.115785,-0.034297,0.011670,-0.254768,0.039499,0.966538
872557700,-0.176695,-0.034434,0.011895,-0.256171,0.040943,0.964308
872560206,-0.176695,-0.034434,0.011895,-0.256960,0.040992,0.967934
872562711,-0.115423,-0.094606,-0.109985,-0.256191,0.043157,0.966466
872565217,0.006397,-0.094332,-0.110436,-0.256179,0.043149,0.965738
872567722,0.067157,-0.094450,-0.050046,-0.257649,0.042439,0.966446
872570227,0.006035,-0.034023,0.011220,-0.252437,0.045977,0.960676
872572732,-0.055087,0.026403,0.072485,-0.252523,0.043102,0.964352
872575237,-0.176970,0.086948,0.073361,-0.258349,0.040961,0.964266
872577743,-0.176821,0.087203,0.012746,-0.255527,0.041727,0.969409
872580248,-0.115762,0.087594,-0.048095,-0.255530,0.046129,0.971540
872582753,-0.054852,0.087731,-0.048320,-0.256191,0.043157,0.966466
872585258,0.005909,0.087613,0.012070,-0.254031,0.042419,0.967245
872587764,0.066945,-0.033886,0.010994,-0.256209,0.042436,0.967202
872590269,0.127918,-0.094568,0.010344,-0.251840,0.042393,0.966559
872592774,0.066945,-0.033886,0.010994,-0.251885,0.043156,0.969462
872595279,0.005972,0.026795,0.011645,-0.255488,0.040234,0.966515
872597785,-0.054726,-0.033906,-0.049170,-0.253269,0.043855,0.965785
872600290,0.006397,-0.094332,-0.110436,-0.253293,0.042404,0.966531
872602795,-0.054364,-0.094214,-0.170825,-0.256225,0.038781,0.966519
872605301,-0.115550,0.027031,-0.109135,-0.254040,0.038026,0.965842
872607806,-0.176735,0.148276,-0.047444,-0.256949,0.043918,0.968626
872610311,-0.238007,0.208448,0.074436,-0.261276,0.046133,0.967788
872612817,-0.238092,0.147374,0.134626,-0.256985,0.041009,0.969390
872615322,-0.177119,0.086693,0.133976,-0.256892,0.043146,0.964996
872617827,-0.115785,-0.034297,0.011670,-0.256821,0.048964,0.963468
872620332,0.006184,-0.033769,-0.049395,-0.256137,0.046787,0.964965
872622838,0.006333,-0.033514,-0.110010,-0.257512,0.043813,0.959149
872625343,0.006121,0.027050,-0.048970,-0.257626,0.045357,0.966411
872627848,-0.115911,0.087340,0.012520,-0.254024,0.041681,0.966525
872630353,-0.115911,0.087340,0.012520,-0.254776,0.041704,0.967967
872632859,-0.115848,0.026521,0.012095,-0.259180,0.038839,0.969375
872635364,-0.115636,-0.034043,-0.048945,-0.262007,0.043942,0.967072
872637869,-0.054513,-0.094469,-0.110210,-0.256902,0.040220,0.964303
872640375,-0.054428,-0.033396,-0.170400,-0.253241,0.040903,0.962909
872642880,-0.115487,-0.033788,-0.109560,-0.249693,0.041663,0.968066
872645385,-0.115848,0.026521,0.012095,-0.256957,0.038057,0.966514
872647890,0.006035,-0.034023,0.011220,-0.263476,0.041766,0.967071
872650396,0.249526,-0.033730,0.070933,-0.259878,0.042491,0.969316
872652901,0.371260,-0.094530,0.130673,-0.253329,0.040963,0.968004
872655406,0.249440,-0.094804,0.131123,-0.250360,0.037962,0.963000
872657911,0.127557,-0.034259,0.131999,-0.250993,0.048170,0.962134
872660417,0.005823,0.026540,0.072260,-0.251149,0.046076,0.970168
872662922,-0.055087,0.026403,0.072485,-0.258363,0.042437,0.965704
872665427,0.005823,0.026540,0.072260,-0.257628,0.040226,0.964289
872667932,0.066882,0.026932,0.011419,-0.255429,0.044593,0.965006
872670438,0.127792,0.027069,0.011194,-0.258364,0.043904,0.966415
872672943,0.127643,0.026814,0.071809,-0.252581,0.045342,0.968693
872675448,0.066945,-0.033886,0.010994,-0.253347,0.040242,0.968741
872677954,-0.055087,0.026403,0.072485,-0.258423,0.039545,0.967924
872680459,-0.116060,0.087085,0.073135,-0.256928,0.040237,0.965759
872682964,-0.116060,0.087085,0.073135,-0.256810,0.042357,0.959909
872685469,-0.054938,0.026658,0.011870,-0.256816,0.041627,0.959918
872687975,-0.054875,-0.034160,0.011445,-0.254725,0.041670,0.965056
872690480,0.006035,-0.034023,0.011220,-0.254037,0.041689,0.967253
872692985,0.006013,-0.155915,0.070984,-0.253968,0.042376,0.963605
872695491,0.006098,-0.094842,0.010794,-0.256141,0.043123,0.963554
872697996,0.006098,-0.094842,0.010794,-0.253301,0.044610,0.967960
872700501,0.006184,-0.033769,-0.049395,-0.252505,0.043823,0.963615
872703007,0.005823,0.026540,0.072260,-0.253237,0.043100,0.963610
872705512,0.005737,-0.034533,0.132450,-0.260468,0.045338,0.962715
872708017,0.005800,-0.095352,0.132024,-0.257595,0.046069,0.964946
872710522,-0.054961,-0.095234,0.071635,-0.257668,0.043186,0.967893
872713027,-0.054748,-0.155797,0.010595,-0.256898,0.042417,0.965005
872715533,0.006248,-0.094587,-0.049821,-0.255458,0.042413,0.965761
872718038,0.067370,-0.155014,-0.111086,-0.252613,0.038031,0.967326
872720544,0.188977,-0.094176,-0.050496,-0.259115,0.043927,0.967856
872723048,0.188616,-0.033867,0.071159,-0.256933,0.047573,0.969310
872725554,0.188404,0.026696,0.132199,-0.257641,0.040234,0.965017
872728072,0.127643,0.026814,0.071809,-0.256235,0.042453,0.968658
872730565,0.127769,-0.094823,0.070959,-0.258351,0.043896,0.965687
872733070,0.188679,-0.094686,0.070734,-0.257568,0.043118,0.962070
872735575,0.249589,-0.094549,0.070508,-0.255421,0.042388,0.963577
872738080,0.188765,-0.033612,0.010544,-0.256942,0.043180,0.967907
872740586,0.188702,0.027206,0.010969,-0.253299,0.043142,0.967250
872743091,0.067031,0.027187,-0.049196,-0.253992,0.040926,0.964350
872745596,0.066945,-0.033886,0.010994,-0.252549,0.044587,0.966518
872748102,-0.054938,0.026658,0.011870,-0.254756,0.040957,0.966520
872750606,-0.115848,0.026521,0.012095,-0.254731,0.040940,0.965064
872753112,-0.176758,0.026384,0.012321,-0.257628,0.040226,0.964289
872755617,-0.116060,0.087085,0.073135,-0.256953,0.040254,0.967215
872758123,0.005760,0.087359,0.072685,-0.257618,0.043152,0.964982
872760628,0.066670,0.087496,0.072460,-0.254676,0.043103,0.962854
872763133,0.127792,0.027069,0.011194,-0.253266,0.040920,0.964365
872765638,0.188702,0.027206,0.010969,-0.253245,0.045305,0.965039
872768144,0.188702,0.027206,0.010969,-0.256157,0.047533,0.966412
872770649,0.127941,0.027324,-0.049421,-0.256929,0.041704,0.966469
872773154,0.006121,0.027050,-0.048970,-0.253996,0.045328,0.966481
872775659,-0.115762,0.087594,-0.048095,-0.253989,0.044590,0.965762
872778165,-0.115911,0.087340,0.012520,-0.252553,0.040923,0.965107
872780670,-0.055001,0.087477,0.012295,-0.256912,0.043892,0.966443
872783175,0.005909,0.087613,0.012070,-0.253257,0.045313,0.965767
872785681,0.066945,-0.033886,0.010994,-0.250411,0.047529,0.970164
872788186,0.127918,-0.094568,0.010344,-0.252543,0.043849,0.965799
872790691,0.249589,-0.094549,0.070508,-0.252490,0.040880,0.961467
872793197,0.249440,-0.094804,0.131123,-0.252567,0.042398,0.966545
872795702,0.188892,-0.155249,0.009693,-0.254034,0.045353,0.968665
872798207,0.127918,-0.094568,0.010344,-0.256203,0.041698,0.966483
872800712,0.067157,-0.094450,-0.050046,-0.255433,0.042396,0.964305
872803217,0.006333,-0.033514,-0.110010,-0.257617,0.041684,0.964271
872805723,0.006419,0.027559,-0.170200,-0.256960,0.040992,0.967934
872808228,-0.054491,0.027423,-0.169975,-0.258361,0.040970,0.964994
872810733,0.006270,0.027305,-0.109585,-0.261225,0.044631,0.964166
872813239,0.127792,0.027069,0.011194,-0.257606,0.043143,0.964254
872815744,0.188616,-0.033867,0.071159,-0.253237,0.043100,0.963610
872818249,0.249526,-0.033730,0.070933,-0.254716,0.046063,0.966458
872820754,0.127557,-0.034259,0.131999,-0.255514,0.041718,0.968681
872823260,0.066859,-0.094960,0.071184,-0.256971,0.039533,0.967952
872825765,0.006035,-0.034023,0.011220,-0.256909,0.040958,0.965022
872828270,0.067031,0.027187,-0.049196,-0.259089,0.042443,0.965690
872830775,0.066882,0.026932,0.011419,-0.254706,0.040923,0.963608
872833281,0.127706,-0.034004,0.071384,-0.255498,0.037308,0.965823
872835786,0.127769,-0.094823,0.070959,-0.258412,0.041004,0.967906
872838291,0.127918,-0.094568,0.010344,-0.258357,0.043166,0.965695
872840797,0.128004,-0.033495,-0.049846,-0.258345,0.044625,0.965678
872843302,0.006121,0.027050,-0.048970,-0.255441,0.044601,0.965734
872845807,-0.054938,0.026658,0.011870,-0.255416,0.044584,0.964278
872848312,-0.055024,-0.034415,0.072060,-0.255431,0.047527,0.966426
872850818,0.066796,-0.034141,0.071609,-0.254022,0.046812,0.968647
872853323,0.188765,-0.033612,0.010544,-0.251828,0.042384,0.965831
872855828,0.249761,0.027598,-0.049871,-0.254029,0.039484,0.965824
872858333,0.188851,0.027461,-0.049646,-0.257673,0.040989,0.967192
872860839,0.067243,-0.033377,-0.110236,-0.253304,0.040946,0.966548
872863344,0.006482,-0.033259,-0.170625,-0.254762,0.040228,0.966529
872865849,-0.054577,-0.033651,-0.109785,-0.256893,0.044613,0.965706
872868354,-0.054875,-0.034160,0.011445,-0.257546,0.047502,0.962744
872870860,0.005886,-0.034278,0.071835,-0.256105,0.046032,0.962790
872873365,0.066945,-0.033886,0.010994,-0.255417,0.046052,0.964988
872875871,0.188765,-0.033612,0.010544,-0.254754,0.046088,0.968642
872878376,0.189063,-0.033103,-0.110686,-0.255459,0.043881,0.966471
872880881,0.067243,-0.033377,-0.110236,-0.256824,0.043833,0.961347
872883386,-0.054640,0.027168,-0.109360,-0.255349,0.046738,0.961339
872885892,-0.115762,0.087594,-0.048095,-0.257539,0.046764,0.962025
872888397,-0.054938,0.026658,0.011870,-0.256124,0.045311,0.963527
872890902,0.006052,-0.034032,0.011216,-0.256129,0.044582,0.963536
872893407,0.067087,-0.155521,0.010137,-0.258276,0.043844,0.961319
872895912,0.189012,-0.276835,0.008833,-0.256092,0.044556,0.961352
872898418,0.249863,-0.276611,0.008605,-0.252567,0.042398,0.966545
872900925,0.249784,-0.276524,0.008602,-0.254023,0.040214,0.965815
872903447,0.127696,-0.094256,0.010325,-0.254729,0.038006,0.963644
872905944,0.005859,0.027391,-0.048992,-0.253302,0.038011,0.965128
872908440,-0.176999,0.148609,-0.047451,-0.253329,0.040963,0.968004
872910956,-0.237917,0.209244,-0.046785,-0.255507,0.040980,0.967962
872913450,-0.237928,0.148105,0.013419,-0.255481,0.039496,0.965796
872915955,-0.176731,0.087631,-0.047850,-0.256228,0.041715,0.967939
872918460,-0.115553,0.027177,-0.109101,-0.256920,0.046098,0.967872
872920965,-0.115603,-0.033905,-0.048877,-0.256882,0.046072,0.965688
872923471,-0.115865,-0.034404,0.072369,-0.253995,0.043860,0.965771
872925976,-0.115828,-0.034393,0.072346,-0.253310,0.040216,0.966557
872928481,-0.115792,-0.034382,0.072323,-0.253321,0.038758,0.966575
872930987,-0.054696,-0.033979,0.011460,-0.253290,0.039470,0.965110
872933492,0.067077,0.027124,0.011431,-0.256145,0.040926,0.962852
872935997,0.127966,0.027252,0.011202,-0.258277,0.045312,0.962029
872938502,0.127863,0.088062,0.011624,-0.256142,0.044590,0.964264
872941007,0.006152,0.088015,-0.048544,-0.256184,0.042419,0.965746
872943513,0.006001,0.087733,0.012086,-0.255459,0.043881,0.966471
872946018,0.006189,-0.094750,0.010807,-0.252548,0.043119,0.965808
872948524,0.067223,-0.216220,0.009728,-0.253262,0.043117,0.965066
872951029,0.067139,-0.155334,0.010150,-0.258396,0.044659,0.968590
872953534,0.066991,-0.033648,0.010997,-0.258390,0.045388,0.968581
872956039,0.005871,0.148681,0.012494,-0.255399,0.046772,0.964251
872958545,-0.055105,0.209315,0.013141,-0.254664,0.043094,0.962126
872961050,-0.054938,0.209504,-0.047478,-0.253956,0.042367,0.962877
872963555,-0.054645,0.088057,-0.108929,-0.253990,0.046057,0.966472
872966060,-0.054502,-0.033608,-0.109745,-0.254003,0.046066,0.967200
872968565,0.006552,-0.155097,-0.110786,-0.254728,0.044604,0.966476
872971071,0.067460,-0.154912,-0.110976,-0.254759,0.043892,0.967941
872973576,0.067226,-0.094299,-0.049901,-0.254050,0.041698,0.967981
872976081,0.006232,-0.033588,-0.049235,-0.256196,0.040961,0.965764
872978587,-0.115716,0.087785,-0.047919,-0.256968,0.043197,0.969363
872981092,-0.176590,0.087621,-0.047679,-0.252576,0.046071,0.968684
872983597,-0.176896,0.147902,0.073992,-0.251773,0.044547,0.963620
872986103,-0.237899,0.147464,0.134809,-0.255441,0.044601,0.965734
872988608,-0.237910,0.086344,0.194956,-0.256237,0.045388,0.970079
872991113,-0.176713,0.025890,0.133630,-0.255478,0.043160,0.967207
872993619,0.006348,-0.095089,0.071446,-0.255470,0.040955,0.965778
872996124,0.128165,-0.094785,0.070973,-0.253280,0.042396,0.965803
872998629,0.128062,-0.033937,0.071376,-0.254011,0.040205,0.965087
873001134,0.127958,0.026892,0.071779,-0.251814,0.040908,0.964393
873003639,0.067008,0.026747,0.071982,-0.251822,0.043113,0.965822
873006145,0.006077,0.026601,0.072184,-0.254012,0.041672,0.965797
873008650,0.006374,0.027103,-0.049068,-0.256152,0.041664,0.963571
873011155,0.006372,0.027094,-0.049053,-0.257611,0.042414,0.964262
873013660,-0.115301,0.027067,-0.109202,-0.256159,0.042402,0.964291
873016166,-0.115414,0.026803,-0.048553,-0.254700,0.041653,0.963600
873018671,-0.115378,0.026795,-0.048537,-0.256850,0.045317,0.963513
873021176,0.006329,0.026806,0.011642,-0.257594,0.044602,0.964236
873023682,0.128210,-0.033747,0.010763,-0.254012,0.041672,0.965797
873026187,0.128233,-0.094555,0.010334,-0.252579,0.042407,0.967273
873028693,0.128130,-0.033707,0.010756,-0.253298,0.041675,0.966540
873031198,0.128239,-0.033442,-0.049862,-0.256159,0.042402,0.964291
873033703,0.067288,-0.033568,-0.049621,-0.255440,0.043134,0.965024
873036208,0.006506,-0.033440,-0.109995,-0.254732,0.042408,0.965775
873038713,-0.054595,0.148889,-0.108460,-0.256208,0.040969,0.966492
873041219,-0.115764,0.270087,-0.046735,-0.254013,0.043140,0.966508
873043724,-0.176574,0.209047,-0.046921,-0.251090,0.043837,0.965827
873046229,-0.237451,0.086953,0.013084,-0.251832,0.040187,0.965129
873048734,-0.115642,0.026126,0.072819,-0.253315,0.039487,0.966566
873051240,-0.115904,0.025608,0.194027,-0.254054,0.039501,0.967280
873053745,-0.115719,0.025855,0.133351,-0.256910,0.042425,0.965732
873056250,-0.115533,0.026102,0.072694,-0.255409,0.043846,0.963559
873058755,-0.176109,0.026466,-0.048334,-0.254697,0.045316,0.965011
873061261,-0.176054,0.026458,-0.048319,-0.253288,0.044601,0.967232
873063766,-0.175849,0.026704,-0.108919,-0.255402,0.043109,0.962840
873066271,-0.175943,0.026441,-0.048269,-0.254652,0.044553,0.962108
873068778,-0.114978,0.026570,-0.048479,-0.254714,0.043128,0.965038
873071282,0.006878,0.026836,-0.048915,-0.256208,0.040969,0.966492
873073787,0.067637,0.026709,0.011490,-0.254043,0.040960,0.967262
873076292,0.006769,-0.034255,0.011287,-0.254800,0.040254,0.968713
873078798,0.006767,-0.034244,0.011283,-0.257660,0.040981,0.966464
873081303,-0.054145,-0.034370,0.011505,-0.256165,0.041673,0.964299
873083808,0.006655,0.087415,0.012126,-0.254757,0.042425,0.967230
873086314,0.067500,0.148343,0.012322,-0.256222,0.042445,0.967930
873088819,0.128538,0.148688,-0.048522,-0.256929,0.041704,0.966469
873091324,0.128561,0.087823,-0.048932,-0.258371,0.044642,0.967134
873093830,0.128647,-0.033842,-0.049766,-0.256888,0.045343,0.965697
873096335,0.128606,-0.033831,-0.049751,-0.256141,0.043123,0.963554
873098840,0.067507,-0.034212,0.011105,-0.256153,0.043132,0.964282
873101345,-0.054248,0.026598,-0.048638,-0.256141,0.043123,0.963554
873103850,-0.053933,0.027099,-0.169852,-0.254000,0.043131,0.965780
873106356,0.006994,0.027227,-0.170024,-0.255559,0.042482,0.971584
873108861,-0.054004,-0.033991,-0.109556,-0.257011,0.042493,0.971556
873111366,-0.175956,-0.034509,-0.048456,-0.253345,0.045373,0.970863
873113872,-0.236960,-0.034890,0.012400,-0.252607,0.045359,0.970149
873116377,-0.297710,0.026057,-0.047569,-0.253996,0.045328,0.966481
873118882,-0.236769,0.087004,-0.047354,-0.253274,0.043125,0.965794
873121387,-0.114961,0.026177,0.012400,-0.253289,0.046068,0.967942
873123892,-0.054164,0.026051,0.072786,-0.255449,0.046807,0.967163
873126398,-0.054147,0.026043,0.072763,-0.254701,0.043120,0.964310
873128903,-0.114977,-0.034920,0.072540,-0.255520,0.040989,0.968690
873131409,-0.054180,-0.035027,0.132907,-0.256173,0.043878,0.965729
873133914,0.067955,-0.034233,0.011185,-0.253205,0.042345,0.961435
873136419,0.189840,0.027125,-0.049459,-0.254665,0.044561,0.962836
873138924,0.189929,0.027372,-0.110058,-0.262009,0.046876,0.968493
873141430,0.189635,-0.033965,0.010781,-0.259019,0.041662,0.961331
873143935,0.128430,-0.095419,0.131808,-0.254016,0.039476,0.965096
873146440,0.128602,-0.155953,0.070726,-0.254128,0.038085,0.970938
873148946,0.067801,-0.155786,0.010314,-0.259880,0.037360,0.967194
873151451,0.007041,-0.033728,-0.109843,-0.261254,0.042452,0.964920
873153956,0.006976,0.027101,-0.109384,-0.257604,0.041676,0.963543
873156461,0.006825,0.026838,-0.048734,-0.256893,0.044613,0.965706
873158967,0.006759,0.087648,-0.048294,-0.256944,0.044647,0.968618
873161472,0.067816,0.088012,-0.109119,-0.255465,0.043151,0.966480
873163977,0.067646,0.087730,-0.048470,-0.255447,0.043872,0.965743
873166483,0.067688,0.026884,-0.048880,-0.254707,0.042390,0.964319
873168988,0.128427,0.026757,0.011525,-0.257665,0.038784,0.965763
873171493,0.250333,-0.094614,0.010221,-0.261284,0.040272,0.965675
873173998,0.250191,-0.033766,0.010643,-0.259759,0.043144,0.962756
873176503,0.311023,-0.033618,0.010414,-0.257654,0.040243,0.965745
873179009,0.188766,0.148319,0.072752,-0.257662,0.042448,0.967174
873181529,0.067036,0.148253,0.012565,-0.257656,0.043177,0.967165
873184020,0.006168,0.087251,0.012361,-0.253970,0.043843,0.964315
873186525,0.006442,-0.034158,-0.049108,-0.254050,0.041698,0.967981
873189030,-0.054556,-0.095358,0.011322,-0.256938,0.045377,0.968609
873191535,-0.115449,-0.095465,0.011544,-0.253965,0.046040,0.965016
873194040,-0.115263,-0.095180,-0.049075,-0.253911,0.041604,0.959974
873196546,-0.054466,-0.095268,0.011331,-0.256910,0.042425,0.965732
873199051,0.006398,-0.034283,0.011527,-0.257711,0.041015,0.969376
873201556,0.067093,0.026429,0.072338,-0.257667,0.041719,0.967183
873204062,-0.054599,0.026401,0.012151,-0.251183,0.041700,0.970221
873206567,-0.176189,-0.034445,-0.048442,-0.250346,0.044552,0.965104
873209072,-0.176134,-0.034434,-0.048427,-0.255490,0.043168,0.967936
873211577,-0.115019,-0.034031,-0.109252,-0.254724,0.040202,0.964345
873214083,-0.054073,-0.033883,-0.109443,-0.250387,0.040914,0.965877
873216588,0.006940,0.027337,-0.169824,-0.252616,0.040965,0.968746
873219093,-0.054122,0.026937,-0.108930,-0.257718,0.041753,0.970095
873221598,-0.115015,0.026792,-0.108671,-0.253952,0.046031,0.964288
873224104,-0.115128,0.026528,-0.048022,-0.251749,0.045997,0.962874
873226609,-0.176001,0.026383,-0.047781,-0.255423,0.045322,0.964997
873229114,-0.176158,0.086938,0.013274,-0.256901,0.038753,0.963593
873231620,-0.176040,0.026093,0.012844,-0.252557,0.038726,0.964405
873234125,-0.175984,0.026084,0.012840,-0.255475,0.040225,0.965787
873236630,-0.114807,-0.034350,-0.048429,-0.256899,0.043884,0.965715
873239135,-0.053861,-0.034203,-0.048639,-0.259804,0.045374,0.966369
873241641,0.007066,-0.034055,-0.048849,-0.254736,0.046809,0.967905
873244146,-0.054059,0.026383,0.012432,-0.254816,0.044664,0.971572
873246651,-0.115015,0.087056,0.013078,-0.256885,0.042408,0.964277
873249157,-0.175825,0.026073,0.012874,-0.254657,0.042356,0.961407
873251662,-0.053887,-0.034480,0.011994,-0.251089,0.042370,0.965117
873254167,0.006891,-0.034587,0.072380,-0.251217,0.037324,0.970275
873256672,0.067884,0.026634,0.011943,-0.254764,0.043163,0.967950
873259178,0.007102,0.026744,-0.048451,-0.261263,0.046124,0.967060
873261683,-0.053747,-0.034220,-0.048636,-0.253306,0.043880,0.967969
873264188,-0.053879,-0.034464,0.011995,-0.253267,0.042387,0.965075
873266693,-0.053862,-0.034453,0.011991,-0.257568,0.043118,0.962070
873269199,0.007065,-0.034305,0.011762,-0.255477,0.041693,0.966497
873271704,0.067973,-0.034158,0.011533,-0.250363,0.042364,0.965131
873274209,0.128861,-0.034010,0.011304,-0.252517,0.043832,0.964343
873276715,0.189668,0.026956,0.011500,-0.254708,0.043858,0.965029
873279220,0.189671,-0.033871,0.011072,-0.255551,0.040277,0.970155
873281725,0.189548,0.026958,0.011493,-0.251915,0.040977,0.970216
873284230,0.189489,0.026950,0.011490,-0.251829,0.043851,0.966541
873286736,0.128456,0.087623,0.012136,-0.256849,0.043850,0.962803
873289241,0.067420,0.026385,0.072548,-0.254756,0.040957,0.966520
873291746,0.006575,0.087313,0.012560,-0.254773,0.038769,0.966547
873294253,-0.054252,0.148222,-0.047408,-0.255535,0.035866,0.967296
873296757,-0.114995,0.148293,-0.107783,-0.256997,0.041018,0.970118
873299262,-0.114896,0.087428,-0.108174,-0.257616,0.040217,0.963561
873301767,-0.114797,0.026582,-0.108565,-0.254080,0.040986,0.969446
873304272,-0.054086,-0.034617,0.012048,-0.251804,0.043834,0.965085
873306778,-0.114979,-0.034743,0.012270,-0.251172,0.043159,0.970204
873309283,-0.114879,-0.095551,0.011841,-0.249601,0.043800,0.963671
873311789,-0.114757,-0.034448,-0.048353,-0.258295,0.044591,0.962766
873314294,-0.114807,-0.095510,0.011852,-0.254740,0.044613,0.967204
873316799,-0.054010,-0.095598,0.072238,-0.254755,0.039490,0.965810
873319304,0.067678,-0.095549,0.132380,-0.255489,0.041701,0.967225
873321810,0.128630,-0.156200,0.131688,-0.255509,0.042448,0.968672
873324315,0.128675,-0.095078,0.071457,-0.256893,0.044613,0.965706
873326820,0.067725,-0.095185,0.071660,-0.259146,0.043215,0.969321
873329325,0.006879,-0.034219,0.011673,-0.259119,0.041730,0.967155
873331830,0.006963,0.026865,-0.048521,-0.251868,0.045344,0.969435
873334336,0.007110,0.027112,-0.109121,-0.251816,0.043843,0.965813
873336841,-0.053802,0.026966,-0.108861,-0.256144,0.039459,0.962142
873339347,-0.053935,0.026703,-0.048212,-0.252451,0.039387,0.958573
873341852,0.006992,0.026831,-0.048422,-0.252563,0.037997,0.964414
873344357,0.067751,0.026705,0.011983,-0.258391,0.038790,0.965749
873346862,0.128640,0.026834,0.011754,-0.256939,0.038778,0.965777
873349368,0.189509,0.026962,0.011525,-0.256196,0.040961,0.965764
873351873,0.128540,0.026817,0.011746,-0.255475,0.040225,0.965787
873354378,0.067653,-0.034147,0.011543,-0.254789,0.043180,0.969405
873356883,-0.054125,-0.095229,0.011565,-0.253982,0.043852,0.965043
873359389,-0.054108,-0.095199,0.011561,-0.254068,0.040977,0.968718
873361894,0.006756,-0.034213,0.011757,-0.256278,0.041750,0.970851
873364399,0.067812,-0.033811,-0.049087,-0.258372,0.046109,0.967844
873366904,0.067940,-0.033545,-0.109686,-0.257638,0.043898,0.966429
873369410,0.128829,-0.033398,-0.109877,-0.256112,0.046770,0.963509
873371915,0.128576,0.027176,-0.048802,-0.257657,0.044645,0.967876
873374420,0.128536,0.027168,-0.048787,-0.254768,0.047564,0.970080
873376925,0.128558,-0.033659,-0.049197,-0.250371,0.044569,0.966560
873379431,0.128518,-0.033649,-0.049181,-0.255421,0.042388,0.963577
873381936,0.189239,-0.033756,0.011224,-0.253280,0.042396,0.965803
873384441,0.189030,-0.034000,0.071835,-0.256109,0.042368,0.961379
873386947,0.127912,-0.034381,0.132653,-0.254725,0.041670,0.965056
873389452,0.188930,-0.033979,0.071771,-0.251846,0.041663,0.966568
873391957,0.188808,0.026850,0.072174,-0.254755,0.039490,0.965810
873394462,0.188771,0.148734,0.012386,-0.254786,0.038778,0.967275
873396968,0.188798,0.209760,-0.047808,-0.253354,0.040980,0.969460
873399473,0.127892,0.148739,-0.047992,-0.253442,0.041040,0.974556
873401978,0.127702,0.148437,0.012638,-0.253323,0.041692,0.967995
873404483,0.127875,0.087827,-0.048407,-0.256854,0.043120,0.962812
873406989,0.127834,0.087800,-0.048391,-0.255459,0.043881,0.966471
873409494,0.188853,0.088164,-0.109216,-0.259063,0.042426,0.964234
873411999,0.188794,0.088136,-0.109182,-0.257609,0.039479,0.962842
873414505,0.128037,0.027408,-0.169963,-0.256302,0.040299,0.971597
873417010,0.006114,0.087944,-0.169034,-0.256955,0.043189,0.968635
873419515,-0.055011,0.148343,-0.107715,-0.259069,0.041696,0.964243
873422020,-0.055079,0.087223,-0.047491,-0.258291,0.046787,0.963467
873424526,-0.055360,0.086686,0.073754,-0.259085,0.046107,0.967102
873427031,-0.055279,0.025840,0.073305,-0.251811,0.044572,0.965804
873429537,0.005648,0.025969,0.073057,-0.251811,0.044572,0.965804
873432042,-0.055264,0.025824,0.073259,-0.255515,0.043185,0.969391
873434547,-0.116007,0.025933,0.012847,-0.261293,0.043945,0.967814
873437052,-0.176668,-0.034775,-0.047972,-0.254729,0.046071,0.967186
873439558,-0.054730,-0.095309,-0.048833,-0.252583,0.046809,0.969403
873442063,0.006197,-0.095142,-0.049043,-0.255405,0.046043,0.964260
873444568,0.067105,-0.094975,-0.049253,-0.255485,0.043898,0.967927
873447073,-0.054501,-0.033891,-0.169592,-0.256199,0.045362,0.967895
873449579,-0.176516,0.026409,-0.108048,-0.253350,0.043176,0.970161
873452084,-0.176609,0.026146,-0.047399,-0.254739,0.043145,0.966494
873454589,-0.115942,0.025765,0.073621,-0.255385,0.045297,0.962813
873457095,0.005914,0.026031,0.073147,-0.249630,0.041620,0.964426
873459600,0.005976,-0.034795,0.072699,-0.253925,0.043080,0.961412
873462105,0.067096,-0.095211,0.011411,-0.259066,0.045360,0.965655
873464610,0.066926,-0.095436,0.072022,-0.256948,0.042451,0.967916
873467116,0.066927,0.026486,0.012235,-0.251854,0.043868,0.967997
873469621,0.066906,0.026477,0.012231,-0.255473,0.045356,0.967909
873472126,0.005975,0.026332,0.012453,-0.256159,0.042402,0.964291
873474631,-0.054787,0.026442,-0.047941,-0.256934,0.040975,0.966478
873477137,-0.115594,0.087369,-0.107891,-0.251821,0.041646,0.965112
873479642,-0.115558,0.087342,-0.107857,-0.254037,0.041689,0.967253
873482147,-0.054698,0.026378,-0.047858,-0.254055,0.040969,0.967990
873484653,0.067117,-0.095248,0.011471,-0.253287,0.043134,0.966522
873487158,0.067096,-0.095218,0.011467,-0.253249,0.043108,0.964338
873489663,0.066926,-0.095443,0.072079,-0.254646,0.045282,0.962099
873492168,0.066905,-0.095413,0.072056,-0.256213,0.038772,0.965791
873494673,0.067096,-0.155946,0.010993,-0.252633,0.038777,0.968773
873497179,0.067075,-0.155897,0.010990,-0.253337,0.043168,0.969434
873499684,0.066991,-0.095030,0.011412,-0.256937,0.043909,0.967899
873502189,0.005933,0.026500,0.012484,-0.255473,0.045356,0.967909
873504695,0.005656,0.147874,0.073945,-0.255478,0.043160,0.967207
873507200,0.005866,0.087263,0.012882,-0.256196,0.040961,0.965764
873509705,0.066838,0.026555,0.012227,-0.257641,0.040234,0.965017
873512210,0.066668,0.026291,0.072838,-0.253997,0.038729,0.963649
873514715,0.127557,0.026420,0.072590,-0.254788,0.041712,0.968695
873517221,0.066819,-0.034289,0.011752,-0.256204,0.043166,0.967193
873519726,0.066649,-0.034533,0.072364,-0.256142,0.044590,0.964264
873522232,0.066479,-0.034777,0.132956,-0.256923,0.042434,0.966460
873524737,0.127517,-0.034374,0.072074,-0.254763,0.041695,0.967239
873527242,0.127626,-0.034108,0.011436,-0.254732,0.042408,0.965775
873529747,0.067037,-0.094544,-0.109997,-0.254756,0.040957,0.966520
873532253,0.006106,-0.094651,-0.109737,-0.256838,0.046776,0.963495
873534758,-0.054806,-0.094758,-0.109478,-0.258283,0.044582,0.962038
873537263,-0.055127,0.087472,-0.047553,-0.253951,0.044564,0.963578
873539769,0.005524,0.208964,0.013702,-0.254708,0.043858,0.965029
873542274,0.005374,0.208643,0.074313,-0.256916,0.041696,0.965741
873544779,-0.055262,0.087059,0.013050,-0.255494,0.039504,0.966524
873547284,-0.054884,0.026723,-0.108610,-0.254750,0.041687,0.966511
873549790,0.006193,0.027106,-0.169416,-0.256966,0.041730,0.968653
873552295,0.006042,0.026843,-0.108748,-0.258423,0.039545,0.967924
873554800,0.006189,0.027089,-0.169329,-0.254079,0.039518,0.968736
873557305,-0.054935,0.087507,-0.108010,-0.254789,0.043180,0.969405
873559811,0.005757,0.026289,0.012604,-0.254032,0.043886,0.967955
873562316,0.066430,-0.034911,0.133179,-0.251782,0.040153,0.962218
873564821,0.066536,-0.156537,0.132287,-0.254650,0.041618,0.960688
873567327,0.127637,-0.216914,0.070980,-0.255390,0.043100,0.962112
873569832,0.188656,-0.216454,0.010118,-0.254024,0.041681,0.966525
873572337,0.188384,-0.155823,0.071155,-0.255499,0.038775,0.966533
873574842,0.127289,-0.034274,0.072208,-0.257648,0.040972,0.965736
873577348,0.005388,0.148173,0.013296,-0.256191,0.043157,0.966466
873579853,-0.055438,0.209063,-0.046673,-0.254022,0.038746,0.965105
873582358,-0.116267,0.148042,-0.046858,-0.252541,0.042381,0.965089
873584864,-0.116104,0.026358,-0.047693,-0.252556,0.045324,0.967237
873587369,-0.116004,-0.034468,-0.048104,-0.254757,0.042425,0.967230
873589898,-0.116117,-0.034712,0.012526,-0.256201,0.040231,0.965773
873592391,-0.055170,-0.034564,0.012297,-0.256880,0.043137,0.964268
873594887,0.005545,0.026147,0.073108,-0.257539,0.046764,0.962025
873597390,0.127575,-0.034151,0.011595,-0.259070,0.043163,0.964953
873599895,0.188445,-0.034003,0.011366,-0.260516,0.042437,0.964206
873602401,0.249359,-0.094674,0.010712,-0.258293,0.041656,0.961345
873604906,0.249068,-0.034080,0.071748,-0.254725,0.041670,0.965056
873607411,0.248841,-0.034325,0.132341,-0.255464,0.041684,0.965769
873609916,0.127006,-0.095406,0.132325,-0.256922,0.040966,0.965750
873612422,0.005232,-0.034577,0.072544,-0.255458,0.042413,0.965761
873614927,0.005380,-0.034311,0.011906,-0.251808,0.041638,0.964384
873617432,0.005527,-0.034046,-0.048713,-0.251813,0.039441,0.963682
873619937,0.066435,-0.033898,-0.048923,-0.254779,0.038040,0.966556
873622443,0.066351,0.026931,-0.048482,-0.256219,0.038043,0.965800
873624948,0.005271,0.026531,0.012373,-0.256153,0.043132,0.964282
873627453,-0.116528,0.148140,-0.046945,-0.252501,0.047487,0.965026
873629958,-0.055581,0.148231,-0.047155,-0.252569,0.045333,0.967965
873632464,-0.055478,0.209257,-0.107330,-0.254794,0.040983,0.968704
873634969,0.066061,0.208956,0.013483,-0.254764,0.043163,0.967950
873637474,0.005045,0.147680,0.073894,-0.254778,0.044638,0.969388
873639980,0.005170,0.025997,0.073020,-0.254720,0.042399,0.965047
873642485,-0.055466,-0.095530,0.011757,-0.254657,0.042356,0.961407
873644990,-0.055449,-0.095500,0.011754,-0.253224,0.043091,0.962882
873647495,-0.055495,-0.034652,0.012175,-0.252511,0.043094,0.963624
873650001,-0.055541,0.026177,0.012596,-0.254658,0.043824,0.962117
873652506,-0.116347,0.087105,-0.047372,-0.256849,0.043850,0.962803
873655011,-0.116311,0.087078,-0.047357,-0.255398,0.045305,0.963541
873657516,-0.177098,0.147987,-0.107307,-0.253976,0.044581,0.965034
873660022,-0.177128,0.086867,-0.047083,-0.256215,0.041707,0.967211
873662527,-0.177136,0.147658,-0.046643,-0.255267,0.039351,0.953421
873665032,-0.177229,0.147357,0.013986,-0.270897,0.053665,0.981347
873667537,-0.238192,-0.035791,0.134162,-0.296404,0.091084,1.044486
873670043,-0.116519,-0.827929,0.552447,-0.323953,0.145783,1.023616
873672548,0.736750,-2.591780,1.082326,-0.431927,0.056086,0.760455
873675053,2.259579,-3.318127,1.253098,-0.410113,-0.117381,0.097340
873677559,2.197350,-1.188089,0.904513,-0.316055,-0.124017,-0.219041
873680064,-0.608041,5.075006,-0.253636,-0.092029,-0.137346,0.175809
873682569,-4.144157,11.580495,-1.589226,-0.167765,-0.064493,0.553631
873685075,-5.426754,18.090797,-2.872536,-0.336646,-0.027146,0.256411
873687580,-5.310441,24.966360,-3.491712,-0.432643,-0.024302,-0.070298
873690085,-7.146170,33.355705,-3.547516,-0.767496,0.161049,0.513088
873692590,-10.990693,39.549286,-3.186885,-0.863938,0.155604,1.421689
873695096,-9.774608,39.000072,-2.104146,-0.825039,-0.041994,1.521015
873697601,-1.549637,32.807690,-0.420087,-0.666649,0.062509,0.894967
873700106,6.126220,27.648251,1.212612,-0.427549,0.282869,0.314925
873702612,5.452835,28.737654,2.131967,-0.563206,0.148967,0.246236
873705117,-1.375232,34.926300,2.079332,-0.865995,-0.172687,0.601256
873707622,-4.486600,41.125347,1.528034,-0.840090,-0.240938,0.836385
873710127,-3.025904,43.807449,0.874568,-0.755230,0.026795,1.211976
873712633,-1.012632,42.416203,0.129976,-0.774901,0.105939,1.417461
873715138,0.698466,38.164783,-0.391011,-0.721331,-0.119233,0.910726
873717643,1.679070,33.790596,-1.031375,-0.741102,-0.171504,0.729642
873720148,-0.265070,31.296734,-2.011437,-0.895484,-0.033092,1.105869
873722654,-4.828537,30.137024,-3.457379,-0.950118,-0.070422,1.307749
873725159,-5.920593,28.131372,-4.376578,-0.874441,-0.130536,1.273532
873727664,-1.166563,24.918169,-4.295452,-0.694823,0.083163,1.146165
873730169,3.768281,21.823956,-3.486771,-0.534125,0.205626,1.189987
873732675,4.987596,18.599493,-2.604583,-0.660779,0.053847,1.473466
873735180,5.661409,13.794307,-2.155726,-0.860962,-0.133373,1.541845
873737685,9.139845,6.624010,-1.855043,-0.879221,-0.007270,1.268276
873740191,13.043955,0.123674,-1.551260,-0.744665,0.213430,0.894515
873742696,13.776632,-2.857080,-1.029260,-0.604123,0.169010,0.687286
873745201,10.972213,-1.405522,-0.584388,-0.531503,0.089468,0.737006
873747717,5.608193,2.231275,-0.478441,-0.601509,0.170638,1.081332
873750212,-0.059151,4.833729,-0.439209,-0.764631,0.174714,1.316302
873752717,-3.408950,4.156428,-0.249650,-0.816246,0.061276,1.310883
873755222,-1.883730,0.203851,0.383849,-0.762500,0.090898,1.198663
873757728,1.773099,-4.231754,1.309138,-0.625230,0.199514,0.912279
873760233,3.905259,-6.968122,2.312577,-0.568326,0.207673,0.901620
873762738,4.391486,-7.821797,3.092818,-0.614846,0.078054,0.888488
873765243,4.634087,-7.396539,3.337353,-0.607908,-0.000484,0.789085
873767749,5.424525,-6.056752,3.343778,-0.547722,0.005686,0.672180
873770254,5.362192,-3.683186,2.936278,-0.546315,0.022569,0.682195
873772759,3.898975,-1.068987,2.414430,-0.619053,0.047191,0.866211
873775265,2.254212,0.693852,1.766077,-0.633689,0.026364,0.947029
873777770,2.011385,1.060253,1.284608,-0.602493,-0.002221,0.894816
873780275,3.656487,1.125790,1.036491,-0.541927,0.039619,0.771651
873782780,4.691599,1.614921,0.975447,-0.552052,0.132062,0.809644
873785286,3.533235,2.646232,0.986955,-0.619660,0.132660,0.938703
873787791,1.218237,3.188648,0.938726,-0.649522,0.059639,0.911355
873790296,-0.486460,2.576882,0.880168,-0.630752,0.036096,0.907637
873792801,-1.276600,1.237605,0.752514,-0.649949,-0.000442,0.951417
873795306,-1.944134,-0.282834,0.380673,-0.634669,-0.065846,0.921202
873797812,-2.671810,-1.680244,-0.353781,-0.600929,-0.051440,0.992319
873800317,-2.546746,-3.075737,-1.091390,-0.590111,-0.058565,0.951830
873802823,-1.569088,-4.043073,-1.950407,-0.495074,-0.109377,0.727053
873805328,-0.592740,-4.037823,-2.681391,-0.500417,-0.050500,0.767736
873807833,-0.530439,-3.365116,-3.525550,-0.586381,-0.030553,0.916597
873810338,-0.712013,-2.754285,-4.248003,-0.605258,-0.103234,0.800601
873812843,-0.345442,-2.386004,-4.852954,-0.561089,-0.058777,0.702580
873815349,-0.162111,-1.958080,-5.274959,-0.579726,0.035550,0.896972
873817854,-0.588264,-1.593109,-5.513291,-0.597865,0.052060,0.986730
873820359,-0.953385,-1.776132,-5.573830,-0.595124,0.106899,0.936580
873822864,-0.710201,-2.629335,-5.035148,-0.613932,0.182774,0.923628
873825370,-0.528443,-3.849116,-4.135101,-0.625724,0.208162,0.902695
873827875,-1.321076,-5.375434,-3.172961,-0.601819,0.163033,0.928475
873830380,-2.052289,-6.961670,-2.393316,-0.540693,0.070060,0.881274
873832886,-1.748069,-7.936374,-1.855709,-0.468057,0.010558,0.645977
873835391,-1.140645,-7.328604,-1.429406,-0.422376,0.035165,0.535848
873837896,-1.448109,-4.958134,-1.229854,-0.511997,0.038049,0.720536
873840402,-2.242698,-2.162011,-1.267985,-0.612928,-0.022974,0.859184
873842907,-1.634986,-0.396142,-1.439754,-0.587851,-0.027350,0.877200
873845412,0.496081,0.216582,-1.382772,-0.572725,0.108508,0.776763
873847917,1.408813,0.095217,-0.962696,-0.579504,0.284213,0.951442
873850423,0.128611,-0.579721,-0.235262,-0.536153,0.225343,1.064435
873852928,-1.211810,-2.350291,0.666591,-0.554947,0.051657,1.108460
873855433,0.188907,-4.297153,1.557030,-0.484120,-0.081157,0.777897
873857939,2.624384,-4.841588,2.150343,-0.447844,0.046894,0.585467
873860444,2.744428,-3.564891,2.340665,-0.623597,0.126785,0.995508
873862949,1.890618,-2.106402,2.172177,-0.708942,-0.123766,1.031920
873865455,3.109292,-1.554513,1.747193,-0.605254,-0.153585,0.736404
873867960,5.242377,-1.303896,1.134858,-0.534189,0.059521,0.794860
873870465,4.573398,-0.572524,0.415058,-0.615728,0.140491,0.924844
873872970,1.650768,-0.150822,-0.177303,-0.637141,0.071975,1.040352
873875475,0.738492,-1.186280,-0.302381,-0.564541,0.017135,1.018391
873877981,2.080214,-3.251858,-0.139947,-0.468379,0.075782,0.986015
873880486,3.421896,-5.134726,-0.036852,-0.505907,0.060537,0.839819
873882991,3.057010,-5.256421,-0.218195,-0.489477,-0.035215,0.520861
873885496,0.864373,-3.798907,-0.866647,-0.573872,-0.042006,0.818657
873888002,-2.058862,-2.220635,-1.693390,-0.641419,0.065353,1.158338
873890507,-4.249831,-2.222508,-2.412661,-0.570937,0.033466,1.101094
873893012,-3.516901,-3.435959,-2.726942,-0.469949,-0.063925,0.764118
873895518,-1.505902,-4.221824,-2.800518,-0.339545,-0.006120,0.683614
873898023,-1.139995,-4.220238,-2.983714,-0.550117,0.148092,0.998115
873900528,-1.504962,-3.976511,-3.283737,-0.667412,-0.060648,0.968576
873903033,-0.590970,-3.730164,-3.527876,-0.553874,-0.153634,0.580077
873905539,0.200525,-3.119689,-3.647783,-0.570579,0.204072,1.029804
873908044,-0.531767,-2.087929,-3.516623,-0.621595,0.147172,1.056473
873910549,-2.056061,-1.180096,-3.262154,-0.405055,-0.080276,0.784505
873913055,-2.970776,-1.305826,-2.774704,-0.538219,0.196680,1.296352
873915560,-2.605289,-2.767195,-2.180109,-0.579946,0.190405,1.228622
873918065,-1.021269,-4.834518,-1.473041,-0.530254,-0.119867,0.615074
873920570,0.257239,-5.259154,-1.056443,-0.418952,0.057032,0.473738
873923076,-1.024278,-3.377424,-0.856688,-0.569202,0.149855,0.884838
873925581,-3.524306,-0.767847,-0.829171,-0.456714,-0.140162,0.930641
873928086,-3.525575,0.022029,-0.641799,-0.519811,-0.058316,1.086460
873930591,-1.210369,-1.007444,-0.475742,-0.508009,0.121600,1.071356
873933097,0.131629,-3.194404,-0.374773,-0.705186,0.090716,1.035170
873935602,0.194414,-5.140712,-0.327987,-0.697924,-0.064540,0.799797
873938107,0.561346,-6.843317,-0.220012,-0.669902,0.106523,0.850662
873940613,1.535594,-8.121115,0.434220,-0.555989,0.204641,1.026436
873943118,2.448692,-9.886873,1.388353,-0.422611,0.148711,1.268579
873945623,4.275562,-12.198707,2.517124,-0.446062,0.046400,0.984622
873948129,7.137570,-13.473023,3.346219,-0.471644,-0.122396,0.375890
873950634,8.171371,-12.011307,3.413207,-0.391488,-0.097814,0.288274
873953139,4.514874,-8.610888,2.783766,-0.479246,0.176794,1.070499
873955644,0.616339,-6.609589,2.084833,-0.564672,0.027231,1.448696
873958150,2.323299,-7.456192,1.830114,-0.375037,-0.223671,0.833465
873960655,6.953507,-8.601587,1.865530,-0.386754,0.104997,0.481048
873963160,7.561600,-7.200629,1.691210,-0.452137,0.194997,0.772188
873965665,4.027043,-4.348067,1.239337,-0.556096,-0.109850,1.020122
873968171,2.077486,-3.500229,1.070653,-0.651868,0.025538,1.366197
873970676,3.966462,-5.383392,1.535411,-0.628996,0.281996,1.165369
873973181,5.672194,-7.633407,2.361983,-0.354219,0.153222,0.510939
873975687,4.635632,-8.307797,3.088516,-0.499621,0.090225,0.951005
873978192,3.050279,-7.400355,3.403825,-0.438206,-0.073826,0.939646
873980697,2.257908,-6.306385,3.171946,-0.402957,-0.086593,0.744566
873983202,1.953561,-5.210044,2.635190,-0.503053,0.105272,0.987897
873985708,1.527413,-4.418580,2.217989,-0.503814,-0.023253,0.724364
873988213,1.223062,-3.748733,1.860102,-0.401464,-0.060973,0.879016
873990718,1.285164,-3.746558,1.374956,-0.496303,-0.062114,1.153236
873993223,1.409685,-4.046298,0.402540,-0.466435,-0.154797,0.731078
873995729,1.229788,-4.041868,-0.748469,-0.443624,-0.059127,0.630556
873998234,0.926751,-3.918113,-1.413258,-0.537072,0.235742,1.205581
874000739,2.023591,-4.645978,-1.301184,-0.608216,0.095768,1.225605
874003245,5.555162,-5.919553,-0.292723,-0.396477,-0.024029,0.482454
874005750,7.623544,-6.041119,0.789837,-0.409372,0.246277,0.632542
874008255,4.697300,-5.016328,1.414028,-0.515237,0.232597,1.201670
874010761,0.554999,-4.904516,1.551427,-0.608675,-0.119251,1.241362
874013265,1.227073,-7.031910,1.594684,-0.487069,-0.151011,0.917082
874015771,4.274192,-8.728232,1.632132,-0.394141,0.199726,0.655259
874018276,3.847466,-8.242389,1.576495,-0.444697,0.142023,0.738755
874020782,0.983610,-6.483818,1.296337,-0.514799,-0.116964,0.939434
874023287,0.070218,-6.302652,1.119146,-0.500994,-0.067717,1.169966
874025792,2.630207,-7.999815,1.097781,-0.422100,0.135907,0.982521
874028297,5.736772,-9.150164,1.502519,-0.410344,0.101518,0.415817
874030803,6.769337,-7.934269,2.173957,-0.381730,0.096685,0.522761
874033308,4.998864,-5.447233,2.804071,-0.408828,0.175009,1.155631
874035813,3.656234,-4.662665,3.541934,-0.575864,0.149004,1.310054
874038319,5.969760,-5.512230,4.315416,-0.389364,-0.138131,0.524786
874040824,7.735254,-5.509787,4.672574,-0.283952,0.054509,0.478551
874043329,5.115245,-4.237725,4.509343,-0.476945,0.381992,1.404489
874045835,2.372947,-3.088594,4.588173,-0.488805,-0.012956,0.994001
874048340,4.199495,-3.512252,5.063359,-0.269308,-0.091122,0.575312
874050845,7.974336,-3.567380,5.715732,-0.503948,0.262314,0.815515
874053350,7.485475,-2.048015,5.728162,-0.356658,0.102573,0.671018
874055856,5.656961,-0.165479,5.445024,-0.431392,-0.177701,0.919939
874058361,6.387826,0.749971,5.085008,-0.546798,-0.050680,0.970773
874060866,7.911063,0.571450,4.956871,-0.474218,0.160422,0.857403
874063371,7.607955,-0.096964,4.650246,-0.562599,0.073491,1.098575
874065876,6.087817,-0.887971,3.922971,-0.565826,-0.161394,1.097773
874068382,4.934792,-2.406448,2.825553,-0.475912,0.009546,0.930608
874070887,3.172031,-3.744604,1.913508,-0.453837,0.253582,1.104998
874073392,1.469877,-5.509626,1.301337,-0.587248,0.055088,1.129646
874075898,1.715929,-6.967193,0.926542,-0.560546,-0.112676,0.773174
874078403,2.143745,-7.207469,0.438345,-0.369027,0.035478,0.600962
874080908,-0.109251,-5.992856,-0.332812,-0.394984,0.085164,1.155551
874083413,-2.055984,-5.993162,-1.295444,-0.599665,-0.174524,1.451243
874085919,0.445986,-8.172934,-2.289825,-0.498927,-0.311578,0.902086
874088424,4.592569,-10.105222,-3.409818,-0.337177,-0.019952,0.624837
874090929,4.594643,-9.370559,-4.556402,-0.320690,0.128410,0.911733
874093435,1.611049,-8.035189,-5.505850,-0.422361,0.042709,1.249501
874095940,1.429634,-8.581691,-5.812076,-0.530981,-0.030909,1.114311
874098445,3.805899,-9.610773,-5.706859,-0.385159,0.135197,0.444290
874100950,2.768081,-8.215806,-5.329561,-0.228132,0.260409,0.407892
874103456,-2.230190,-5.430664,-4.988457,-0.380339,0.247501,1.136348
874105961,-5.826547,-4.163851,-4.420703,-0.571320,0.091898,1.106920
874108466,-6.132420,-4.471431,-3.754937,-0.344298,0.029143,0.512662
874110971,-7.047285,-4.597416,-3.206873,-0.309972,0.142375,0.802520
874113477,-9.240675,-3.994163,-3.194512,-0.460838,-0.007331,1.184559
874115982,-8.935575,-4.236242,-3.318568,-0.284346,-0.158119,0.826389
874118487,-5.158059,-5.139771,-3.399528,-0.317237,0.028784,0.752802
874120992,-1.624921,-5.192135,-3.534249,-0.334528,0.021013,0.699398
874123498,-1.746642,-3.851855,-4.130596,-0.240478,-0.032065,0.655980
874126003,-3.695571,-2.028118,-4.959243,-0.363025,0.092480,0.991477
874128508,-5.339426,-0.994845,-5.673314,-0.509782,0.021380,0.920342
874131013,-5.522020,-0.263906,-6.031226,-0.424089,0.065167,0.731361
874133519,-5.766527,0.282403,-5.905269,-0.410990,0.259834,0.982661
874136024,-6.256142,0.947507,-5.232025,-0.569352,0.217157,1.341384
874138529,-6.500812,0.214080,-4.508845,-0.494887,-0.039370,1.165363
874141035,-6.195580,-1.733719,-3.978041,-0.548675,0.020245,1.360965
874143540,-6.253097,-5.139944,-3.941008,-0.577156,0.149877,1.510304
874146045,-4.909180,-9.029566,-3.912558,-0.535612,-0.025555,1.132364
874148550,-0.399783,-11.574823,-3.704624,-0.357682,-0.069771,0.528921
874151056,2.523027,-11.021392,-3.590381,-0.369549,0.117464,0.750700
874153561,0.450919,-8.895619,-3.992147,-0.493281,0.144311,1.278927
874156066,-2.350013,-7.925512,-4.762977,-0.501202,-0.115720,0.993575
874158572,-1.069549,-8.651439,-5.015269,-0.326241,0.005597,0.508202
874161077,1.000369,-8.526673,-4.658389,-0.237919,0.347972,0.591614
874163582,-1.135103,-6.770791,-3.910795,-0.250932,0.314790,0.866347
874166088,-3.210793,-5.077627,-2.678932,-0.444360,0.175027,0.943009
874168593,-1.450395,-3.621656,-0.856811,-0.284395,0.142312,0.500764
874171098,0.553368,-2.043756,1.025873,-0.227667,0.323139,0.785120
874173603,-0.061523,0.077405,2.497766,-0.383794,0.295804,1.147338
874176109,-0.857472,1.165260,3.720647,-0.308524,0.040933,0.800160
874178614,1.027778,1.286301,4.866199,-0.347879,0.095855,0.789984
874181119,2.000422,1.407072,5.590825,-0.383901,0.162923,0.886057
874183625,-0.619361,1.887475,5.664527,-0.415549,0.042722,0.940828
874186130,-3.298505,1.882977,5.310750,-0.482247,-0.094902,0.915025
874188635,-2.992107,1.399407,4.760687,-0.454574,-0.134039,0.768193
874191140,-2.745915,1.099685,3.848435,-0.346941,0.046332,0.797897
874193646,-4.875206,1.221114,2.766100,-0.410851,0.114063,1.119930
874196151,-6.273036,0.248436,1.915870,-0.507071,-0.138367,1.112457
874198656,-3.102819,-1.384501,1.407756,-0.514101,-0.207377,0.692210
874201165,0.370322,-1.740074,1.028675,-0.340786,0.083695,0.627129
874203667,-1.152377,-1.073222,0.735908,-0.462851,0.270472,1.296890
874206172,-3.526726,-2.173296,0.737042,-0.568256,-0.027518,1.380114
874208677,-0.965902,-5.392195,1.008123,-0.440113,-0.149267,0.723504
874211182,1.777531,-8.062552,1.100510,-0.357748,0.190082,0.730366
874213688,0.073086,-8.917591,1.040251,-0.547425,0.200018,1.325994
874216193,-1.813518,-10.320407,0.976841,-0.570729,-0.125305,1.186815
874218698,0.624917,-12.992214,1.252199,-0.410249,-0.119762,1.024507
874221204,3.307105,-15.054014,1.227833,-0.187243,0.091502,1.032743
874223709,1.908277,-15.784693,0.682377,-0.334678,-0.035114,1.143630
874226214,0.265737,-15.297512,-0.338594,-0.284658,-0.191153,0.997216
874228719,-0.523915,-14.808158,-1.423335,-0.114319,0.021039,1.110761
874231225,-0.277768,-15.351664,-2.216057,-0.350401,0.221961,1.408900
874233730,2.220701,-16.318888,-2.292711,-0.314273,-0.080282,0.534256
874236235,4.351383,-15.767747,-2.054309,-0.142472,0.063470,0.157064
874238741,2.458657,-12.002269,-1.778507,-0.355079,0.305337,0.794542
874241246,-2.541213,-7.392063,-1.545879,-0.414136,-0.016893,0.707803
874243751,-4.190389,-4.113604,-1.031920,-0.392024,-0.009957,0.566850
874246256,-3.098582,-1.438184,-0.289889,-0.329599,0.210015,0.582086
874248761,-4.929594,1.841393,-0.138943,-0.324054,0.119463,0.766845
874251267,-9.560427,4.447959,-0.527847,-0.415075,-0.117454,1.094304
874253772,-10.958934,3.839682,-1.254297,-0.521517,-0.121928,1.198645
874256277,-8.700699,0.745303,-1.829849,-0.434558,-0.040630,1.036900
874258783,-6.016644,-2.105353,-2.284047,-0.228514,-0.014563,0.978635
874261288,-3.882004,-3.923584,-2.668376,-0.297265,-0.139793,1.076453
874263793,-0.287612,-3.731518,-3.044082,-0.259114,-0.184357,0.909498
874266299,1.296823,-2.751803,-3.770518,-0.112255,0.032593,0.913285
874268804,-0.773370,-0.744610,-4.900514,-0.349244,0.024671,1.130230
874271309,-2.721409,0.654163,-5.913982,-0.318951,-0.154090,0.645781
874273814,-2.843726,1.993423,-6.267869,-0.297113,0.196434,0.629490
874276342,-4.308506,3.812906,-5.825403,-0.409863,0.497371,1.021991
874278842,-7.906095,5.260389,-4.832068,-0.437920,0.119071,0.840404
874281335,-9.493178,5.677461,-3.610935,-0.428686,0.056322,0.783092
874283836,-9.617808,5.794237,-2.518564,-0.372077,0.210349,0.895167
874286341,-11.385769,6.153136,-2.024560,-0.316438,-0.049248,1.007233
874288846,-11.324353,5.666726,-2.028186,-0.380004,-0.287267,1.133491
874291351,-6.022775,4.220529,-2.421679,-0.324883,-0.268115,1.062941
874293857,0.254298,2.595344,-3.123126,-0.234447,-0.114889,1.067158
874296362,2.815998,1.693152,-4.169420,-0.336618,-0.025484,1.217762
874298867,4.159649,0.788476,-5.271823,-0.350953,-0.156007,1.023911
874301372,4.892700,1.037470,-6.242666,-0.286980,-0.001117,0.712239
874303878,2.334772,2.189816,-6.831277,-0.458703,0.427257,1.043038
874306383,-1.079849,4.125533,-6.138292,-0.522672,0.334948,0.963562
874308888,-3.155951,5.208726,-4.486375,-0.289391,0.198500,0.813148
874311393,-4.501187,5.196795,-2.359893,-0.406749,0.398206,1.343004
874313899,-5.966988,5.125809,-0.718307,-0.370281,0.029969,0.879949
874316404,-6.274343,5.668667,0.195871,-0.144704,-0.273786,0.639687
874318909,-5.543405,5.365709,0.312272,-0.444592,0.150231,1.698570
874321415,-2.676770,2.515209,-0.081987,-0.596915,-0.106985,1.489791
874323920,3.724796,-1.968679,-0.682636,-0.350745,-0.402009,0.318306
874326425,7.747275,-2.564765,-1.429136,-0.272915,0.187530,0.445075
874328930,3.786953,1.140843,-2.479630,-0.401183,0.244839,1.080628
874331436,-1.149166,4.598437,-2.922071,-0.552978,-0.201186,1.009657
874333941,1.163547,5.392499,-2.500799,-0.365715,0.090408,0.810830
874336446,5.181250,4.361765,-1.128749,-0.223942,0.567210,1.012324
874338952,4.690153,3.866732,0.627487,-0.312782,0.291178,0.987805
874341457,3.224303,3.125469,2.567472,-0.332051,-0.014894,0.750143
874343962,3.890772,2.511657,4.257963,-0.357597,0.218571,0.859656
874346468,1.391078,2.501964,5.237040,-0.394480,0.267157,1.122724
874348973,-2.020105,1.275375,5.847303,-0.501778,-0.014633,1.154729
874351478,0.234562,-0.972132,6.368773,-0.348072,-0.143046,0.570796
874353983,4.620047,-1.937148,6.770056,-0.146769,0.110385,0.425148
874356489,3.948628,-0.296047,6.662782,-0.409996,0.208561,1.028468
874358994,1.268057,1.646664,6.080148,-0.553925,-0.275575,0.947923
874361499,2.610050,1.043786,5.525406,-0.406601,-0.206568,0.901836
874364004,6.085486,-1.805853,5.250124,-0.435826,0.365955,1.371975
874366510,8.706858,-4.964306,5.642635,-0.359980,0.184266,0.856393
874369015,11.143063,-7.213441,6.648349,-0.290522,-0.056128,0.306453
874371520,13.271996,-6.848068,7.673470,-0.355890,0.224015,0.638215
874374026,8.577617,-4.002442,8.256333,-0.167050,0.357592,1.283297
874376531,0.840978,-2.985925,8.292171,-0.022961,-0.028284,2.144416
874379036,2.308626,-7.420346,7.770810,-0.080253,-0.568023,1.986110
874381541,13.038905,-14.263626,6.470820,0.101250,-0.476319,0.901829
874384046,21.881048,-18.308405,3.985070,0.050898,-0.053148,0.933506
874386552,24.264515,-19.081472,1.061238,-0.421754,-0.191123,1.279348
874389057,27.804737,-19.913774,-1.624841,-0.538763,-0.582122,0.442183
874391562,33.291660,-19.710073,-3.765366,-0.518691,-0.174647,-0.200464
874394068,32.437050,-13.317899,-5.657253,-0.384295,0.312807,-0.155102
874396573,21.768993,-0.988845,-7.168133,-0.173044,0.130243,0.357393
874399078,12.377440,10.546583,-7.295125,-0.408577,0.135977,1.124073
874401583,11.150762,16.256445,-6.220202,-0.437444,0.298130,1.435417
874404089,11.513330,14.729162,-4.413732,-0.426801,0.547258,1.852052
874406594,10.297617,8.028749,-2.637540,-0.675252,0.417610,1.880919
874409100,10.912725,-1.768786,-1.011019,-0.683132,0.077899,0.763364
874411605,12.923604,-8.038249,1.241129,-0.278601,0.507215,-0.300404
874414110,5.424339,-5.447803,3.166184,0.068063,0.802852,0.403978
874416615,-9.752032,0.776782,4.599597,-0.442708,0.042877,1.501103
874419120,-16.518665,6.174419,4.662440,0.031569,-0.748533,0.654039
874421626,-12.497958,7.281249,3.927844,0.129604,-0.130468,0.549970
874424131,-8.903363,10.580917,2.179674,-0.089979,0.218083,0.883019
874426649,-12.431985,12.895285,-0.458165,-0.190312,-0.455368,1.053276
874429142,-11.694069,12.055917,-2.952036,-0.556528,-0.385017,1.133487
874431647,-4.254724,8.370348,-4.823903,-0.504278,0.007870,0.388219
874434152,0.438825,7.472952,-5.878082,-0.263773,0.258547,0.158876
874436657,-2.731958,12.090323,-6.379592,-0.414744,0.173682,0.533556
874439163,-8.830335,18.887781,-6.188220,-0.487058,0.078973,1.059175
874441668,-12.917437,22.767418,-5.297307,-0.503567,0.315070,1.527888
874444173,-16.756783,21.110319,-3.779218,-0.599989,0.507355,2.061880
874446678,-19.676746,13.798905,-2.243430,-0.537725,0.133753,1.909648
874449183,-18.511221,3.153438,-1.170423,-0.481419,-0.215490,1.400129
874451689,-13.264057,-6.263170,-0.892003,-0.332511,-0.076677,1.209733
874454194,-7.348934,-12.269890,-1.198403,-0.338652,0.020145,1.062029
874456700,-1.560541,-13.411153,-1.530957,-0.357079,-0.096823,0.524169
874459205,3.370265,-9.749421,-1.887387,-0.051291,-0.142621,0.379128
874461710,6.288634,-4.207603,-2.041358,-0.281979,0.093231,1.051292
874464215,8.355081,0.115164,-2.018833,-0.323991,0.081284,0.997464
874466721,9.388409,1.027731,-1.531366,-0.075656,0.282138,0.881046
874469226,8.900412,-0.436829,-0.630542,-0.313405,0.460246,1.097864
874471731,7.313745,-0.993873,0.826249,-0.143136,0.208857,0.300918
874474236,3.531509,0.571779,2.548490,-0.020404,0.422931,0.479799
874476742,-2.079352,3.410509,4.286417,-0.636972,0.548461,1.365123
874479247,-6.531868,5.522530,5.893733,-0.507589,-0.088626,0.620222
874481753,-8.057193,5.697484,6.870480,-0.351725,-0.109518,0.628577
874484258,-9.032090,5.877492,6.935975,-0.561719,0.259128,1.380341
874486763,-12.135991,5.326453,6.155643,-0.369430,-0.144403,1.256472
874489268,-12.618067,2.044219,5.407108,-0.486766,-0.166634,1.520322
874491773,-7.738787,-3.173425,4.928219,-0.529933,-0.001082,1.485402
874494279,-2.372021,-8.877031,4.565357,-0.405095,-0.010358,1.152166
874496784,0.981939,-11.482653,4.049767,-0.537861,-0.031585,0.673559
874499289,1.530033,-10.384903,3.631086,-0.357144,0.046440,0.799884
874501794,-0.541827,-8.928899,3.406489,-0.534625,0.292722,1.591658
874504300,-0.968458,-9.539571,3.767504,-0.503370,0.033372,1.392991
874506805,2.322093,-12.758864,4.520802,-0.080248,-0.175458,0.861119
874509310,5.673645,-15.490454,5.034816,-0.239751,0.211349,1.264769
874511816,4.700377,-16.160629,4.791284,-0.282371,0.043630,1.303164
874514321,2.630826,-15.919209,4.133879,-0.207210,-0.267872,0.979261
874516826,3.242582,-16.461637,3.279190,-0.552045,-0.071066,1.222192
874519331,5.681663,-16.451572,2.179109,-0.339794,-0.079766,0.749339
874521837,4.586666,-14.623879,0.862388,-0.184661,-0.039779,0.408066
874524342,1.966445,-11.280678,-0.074383,-0.528030,0.153325,1.150693
874526847,1.903159,-8.421329,-0.296637,-0.420435,-0.087637,0.704914
874529352,2.692643,-6.595758,-0.104967,-0.354220,0.097976,0.779640
874531858,1.228907,-4.774492,-0.086806,-0.405090,0.212793,1.082406
874534363,-2.242847,-4.172842,-0.372789,-0.428487,-0.017637,1.073877
874536868,-4.434286,-4.297371,-0.850449,-0.350664,-0.067228,0.753344
874539374,-6.016544,-4.785952,-1.211683,-0.139139,0.169447,1.057468
874541879,-7.475759,-6.307917,-1.641209,-0.519426,0.003736,1.468065
874544384,-7.106744,-8.433448,-2.202976,-0.313854,-0.309108,0.869928
874546889,-5.761367,-11.284824,-3.197753,-0.048415,-0.036572,1.096717
874549395,-3.929791,-13.527685,-4.008237,-0.437327,0.123547,1.101095
874551900,-1.735817,-13.398823,-4.561032,0.090239,-0.206286,0.022852
874554405,-1.738221,-11.087722,-4.544877,-0.033107,0.284193,0.774050
874556911,-2.656325,-7.380870,-4.273104,-0.532619,0.211448,1.063946
874559416,-2.478988,-3.916865,-3.522168,0.112826,-0.297934,0.062290
874561921,-1.691798,-1.607806,-2.599716,-0.082967,0.367283,1.046637
874564426,-1.695426,-0.273622,-1.681138,-0.523089,0.324225,1.233890
874566932,-2.490503,0.693870,-0.762182,0.043891,-0.216742,-0.157076
874569437,-3.590275,2.086916,0.039646,-0.319509,0.325831,0.762927
874571942,-6.760999,4.206400,0.551160,-0.478231,0.251375,1.337616
874574448,-9.136889,4.444076,0.622262,-0.150542,-0.415721,0.537179
874576953,-6.821507,3.963244,0.489070,-0.191701,-0.066762,0.592527
874579458,-4.932593,4.151474,0.119672,-0.043721,0.262087,0.999167
874581964,-6.210885,4.942040,-0.536836,-0.135503,-0.240954,0.835374
874584469,-6.757620,5.552560,-1.379167,-0.047812,-0.358866,0.669549
874586974,-3.953508,5.258081,-2.179651,-0.088719,0.076683,0.957620
874589479,-1.880230,5.023032,-3.037621,-0.038806,0.051479,0.832894
874591985,0.740019,4.238792,-3.174065,-0.130782,0.137602,1.022335
874594490,7.071455,3.882012,-1.745284,-0.446611,0.344009,0.226405
874596995,12.848752,6.803864,0.738936,-0.255412,0.349641,0.093820
874599500,9.304601,12.564497,2.974530,-0.334663,0.401648,1.125127
874602006,0.586446,16.247700,4.729898,-1.058119,0.557966,1.946836
874604511,-2.768801,15.926646,6.982918,-0.319352,-0.043832,0.717242
874607016,-0.517779,11.296771,9.973022,-0.336864,0.504085,1.338671
874609521,2.220653,6.972850,12.781606,-0.638452,0.518897,2.023125
874612027,4.900045,2.286428,14.981714,-0.050891,-0.382437,0.836564
874614532,9.956907,-2.147555,16.265511,-0.501034,-0.137601,1.434477
874617037,15.321005,-6.576267,16.457111,-0.497618,0.279478,1.797189
874619543,17.274942,-9.914604,15.880985,-0.262616,-0.120848,0.344205
874622048,15.510005,-9.733318,15.222031,-0.207111,0.115818,0.221450
874624553,10.514050,-7.309775,14.772588,-0.325590,0.291582,1.391037
874627058,5.884530,-5.675794,14.255652,-0.392418,-0.205971,1.089278
874629564,5.156031,-6.282565,13.526725,-0.027146,-0.272252,0.856053
874632069,9.179584,-7.912564,12.772997,-0.179112,0.201575,0.905542
874634575,12.042447,-6.992065,12.344481,-0.048510,0.142189,0.218349
874637080,11.551711,-3.526255,12.309901,-0.011908,0.105512,0.478785
874639585,10.266832,0.725866,12.889927,-0.465728,0.312279,1.062531
874642090,11.844307,3.947965,14.058286,-0.254993,0.096619,0.418867
874644595,14.821468,6.500897,16.004784,-0.185194,0.407622,0.425836
874647101,15.603852,9.411005,18.628706,-0.463025,0.792173,1.368373
874649606,15.715431,11.648058,21.856581,-0.351020,0.228755,0.861842
874652111,16.924889,12.732533,24.951094,-0.246393,0.005688,0.887731
874654617,17.956789,11.571157,26.878866,-0.699184,0.319772,1.919539
874657122,18.568071,8.469004,27.279238,-0.591366,-0.173818,1.266403
874659627,19.792063,4.338637,26.639671,-0.411399,-0.273928,0.688453
874662132,21.686499,1.368130,25.338942,-0.383021,0.170862,1.382684
874664638,21.510592,-0.021931,23.147699,-0.441986,-0.289517,1.020895
874667143,18.836891,1.201406,20.074749,-0.046875,-0.492215,0.431599
874669648,14.945651,2.362204,16.763418,-0.275184,-0.046326,1.351754
874672154,11.482172,2.185955,13.441159,-0.726376,-0.204051,1.582451
874674659,9.300103,-0.054989,10.039099,-0.049245,-0.570527,0.533756
874677164,5.350519,-1.936269,6.949197,-0.185129,0.196381,1.082470
874679669,-1.221260,-1.879033,4.306892,-0.427998,0.141393,0.948109
874682174,-9.074646,-0.427633,2.103401,-0.002834,-0.697955,0.398572
874684680,-13.699512,0.605044,-0.054391,-0.480652,-0.074005,1.334305
874687185,-14.913188,1.280225,-2.166734,-0.176726,-0.048381,0.993159
874689690,-13.812880,0.375511,-3.389466,0.008690,-0.080844,0.716727
874692195,-12.836793,-0.228953,-3.761012,-0.412962,0.322524,1.040113
874694701,-11.861751,-0.835201,-3.708253,-0.183921,-0.006576,1.133069
874697206,-11.861435,-1.139293,-3.710379,-0.378035,-0.125084,0.840201
874699711,-10.338916,-0.770703,-3.774075,-0.520490,0.148677,1.132687
874702216,-9.853624,0.567379,-3.524064,-0.277492,0.060853,0.778661
874704722,-12.046865,1.170887,-3.572318,-0.388212,0.076135,1.640120
874707227,-11.739655,-0.956309,-3.770169,-0.747885,-0.157142,1.837824
874709733,-9.055222,-4.171875,-4.226918,-0.181442,-0.187643,0.366984
874712238,-7.772119,-7.147574,-4.616170,-0.202678,0.285069,1.546428
874714743,-7.464719,-9.457227,-4.815297,-0.732102,0.182111,1.788782
874717248,-7.219263,-10.915812,-4.947631,0.137371,-0.289242,0.200306
874719754,-6.548882,-12.132202,-4.594922,-0.176377,0.482247,1.205834
874722259,-6.735240,-10.798429,-3.675668,-0.441332,0.479705,0.985916
874724764,-8.812272,-9.107561,-1.898269,0.388880,0.058299,0.090877
874727270,-8.820172,-7.110488,0.479745,-0.486216,0.689677,1.320396
874729775,-8.037830,-4.017670,3.044329,-0.111158,0.112282,0.173814
874732280,-9.082204,-0.196845,5.075237,0.093511,0.056428,0.158777
874734785,-12.074670,3.925982,6.569945,-0.666934,0.532452,1.535898
874737290,-14.758209,5.132502,7.497585,-0.528369,0.052856,1.167950
874739796,-13.479163,3.185621,8.327859,-0.418220,-0.079868,0.999098
874742301,-9.519423,0.758474,9.084207,-0.369036,0.294306,1.091560
874744806,-5.255004,-1.363131,9.659708,-0.452650,-0.094788,1.134815
874747312,-3.731175,-1.967127,9.467978,-0.477386,-0.161030,0.940698
874749817,-4.822915,-4.276871,8.546655,-0.516730,0.187151,1.937069
874752322,-3.354648,-8.588381,7.723068,-0.896606,-0.128883,1.463175
874754827,1.401230,-12.285839,7.255258,-0.056753,-0.418501,-0.013043
874757333,3.352630,-14.044425,7.053875,-0.299104,0.507686,1.424565
874759838,-0.180179,-13.016673,6.649864,-0.660426,0.256469,1.583859
874762343,-4.076464,-13.753223,6.174260,0.063479,-0.531723,0.626485
874764848,-2.125336,-14.963936,5.855473,-0.319267,0.104696,1.321365
874767354,-0.783384,-15.384103,5.241391,0.094732,0.181933,0.980242
874769859,-2.304199,-15.810707,4.637897,-0.111970,-0.062687,1.189769
874772364,-1.511344,-15.502541,4.091558,-0.282275,-0.084003,0.739573
874774870,-0.293321,-14.037865,3.551722,0.201180,-0.102232,0.205050
874777375,-1.451577,-10.813013,2.608694,-0.329418,0.058591,0.798083
874779880,-4.499126,-5.400904,1.203034,-0.335332,-0.182756,0.237965
874782385,-7.730169,0.314121,-0.017979,-0.083153,-0.097199,0.184223
874784891,-11.875145,5.295486,-0.816409,-0.511132,0.421171,1.424468
874787396,-14.311941,5.959519,-0.923952,-0.402166,0.048012,1.343776
874789902,-11.936023,4.259652,-0.399106,-0.325336,-0.171237,0.294824
874792406,-10.414241,3.469379,0.317115,0.026398,0.364642,0.645290
874794912,-13.400233,3.521192,0.874114,-0.537402,0.332004,1.768827
874797417,-16.019346,2.784206,1.181775,-0.343160,-0.192847,1.060931
874799922,-12.362555,-1.042195,1.868855,-0.174896,-0.038380,0.850322
874802428,-6.393275,-3.282875,2.740273,-0.253507,0.351985,0.863653
874804933,-6.090681,-2.980901,3.408037,0.183345,0.052651,0.463530
874807438,-8.104031,-0.797741,3.855081,-0.217457,-0.009389,1.055257
874809944,-6.888533,1.515590,3.987960,-0.192636,-0.139209,0.698280
874812449,-3.905996,2.920107,4.229159,0.032434,0.077494,0.673715
874814954,-1.898533,3.955993,4.835103,-0.302921,0.439900,1.238153
874817460,0.716619,4.625280,6.163622,-0.193519,-0.020795,0.591924
874819965,1.867733,6.688830,7.810402,-0.037320,0.102299,0.309367
874822470,-2.220082,9.531494,9.421467,-0.298787,0.674895,1.437801
874824975,-7.705953,10.182562,10.779948,-0.669790,0.011101,1.555392
874827481,-8.376246,7.438875,12.036211,-0.291287,-0.337676,0.687181
874829986,-4.659483,3.367298,13.206285,-0.373192,0.387080,1.162438
874832491,-2.832777,1.786306,14.097698,-0.340206,0.187654,0.973989
874834996,-4.051174,1.113034,14.461218,-0.128457,-0.251136,0.968916
874837502,-2.161466,-0.037760,14.324926,-0.571823,0.001302,1.598183
874840007,1.068523,-0.575828,13.824242,-0.213390,-0.167595,0.626129
874842512,2.654074,-0.812737,13.149919,-0.082960,-0.056293,0.944079
874845018,4.177663,0.106022,12.423283,-0.559605,0.058001,1.337710
874847523,5.639850,0.780096,11.998247,-0.167124,-0.065171,0.432752
874850028,4.602334,2.602067,12.075446,-0.166103,0.269460,0.855429
874852533,0.701645,4.234123,12.404418,-0.371172,0.223891,1.434695
874855039,-1.553212,4.653510,12.718804,-0.333480,-0.297445,0.792206
874857544,-1.249597,4.835376,13.022028,-0.152102,0.077108,0.508484
874860049,-2.896004,6.168920,13.219309,-0.302199,0.389304,1.216214
874862554,-6.673732,7.133012,13.361307,-0.313066,-0.139295,1.108189
874865060,-6.184297,5.492774,13.166182,-0.313517,-0.353090,0.914905
874867565,-1.368684,3.499390,12.467590,-0.287140,-0.076290,0.772158
874870070,-0.573457,2.532153,11.488020,-0.210623,0.181497,0.787197
874872576,-2.824867,2.652798,10.527365,-0.455013,-0.003723,1.185354
874875081,-2.580247,2.715948,10.102584,-0.238354,-0.248601,0.731526
874877586,-1.179675,3.205901,10.040188,-0.092462,0.180429,0.716653
874880091,-2.156497,4.662078,10.357072,-0.272505,0.280349,1.215218
874882597,-4.046607,6.055892,10.555678,-0.211310,-0.176353,0.879001
874885102,-4.047755,6.297637,10.921069,-0.170818,0.023854,0.935572
874887607,-2.464823,5.995322,11.337391,-0.250112,0.365798,1.050723
874890113,-2.405061,6.237204,11.702556,-0.191483,-0.091353,0.611043
874892618,-3.197500,6.965499,11.649971,-0.221655,-0.129459,0.700515
874895123,-3.684577,8.061429,11.113891,-0.324561,0.018858,0.961080
874897628,-3.257245,8.429591,10.569329,-0.258128,-0.172316,0.816144
874900134,-1.062937,7.949759,10.133513,-0.311346,-0.036830,1.012276
874902639,1.740470,7.471296,9.695445,-0.329719,0.016747,1.089918
874905144,2.413452,6.624913,8.838404,-0.308113,-0.058345,1.109469
874907650,3.452950,5.050038,7.853681,-0.501595,-0.124993,1.263157
874910155,5.954116,3.356306,6.983931,-0.418874,-0.032738,0.973741
874912663,6.931467,1.535473,6.603882,-0.303057,0.297498,1.225343
874915165,5.165788,0.131402,6.903713,-0.502306,0.374339,1.481296
874917670,1.876149,-0.973530,7.574991,-0.232830,0.096168,0.899256
874920176,-0.622410,-2.504449,8.725284,-0.215684,0.147303,0.854527
874922681,-3.305127,-2.088569,9.647397,-0.192815,0.272260,0.889111
874925186,-8.057382,-2.162365,10.210079,-0.041090,0.101916,0.902873
874927691,-10.433864,-1.499215,10.344771,-0.258116,-0.016632,0.841897
874930197,-10.129918,-0.341960,10.109262,0.017833,-0.203404,0.345522
874932702,-8.974369,2.338438,9.699383,-0.058194,0.003834,0.673609
874935207,-9.768435,6.353987,8.942374,-0.179075,0.059543,0.924776
874937713,-10.438995,8.605821,8.233202,-0.257147,-0.118243,1.076231
874940218,-9.098205,9.158493,7.686538,-0.400349,0.001320,1.093120
874942723,-5.503740,8.132152,7.787249,-0.368116,0.207899,0.749611
874945228,-3.619520,9.530891,8.820498,-0.280523,0.359887,0.707905
874947734,-5.878776,10.734802,10.595172,-0.420409,0.445881,1.481260
874950239,-7.528373,10.539729,12.721504,-0.691004,0.218885,1.655109
874952744,-7.348204,7.976848,14.824498,-0.223766,0.034751,1.019632
874955271,-5.520950,3.716022,16.606430,-0.409929,0.235383,1.580198
874957770,-3.204935,0.616428,17.303568,-0.434001,-0.154910,1.122078
874960263,-1.313687,-1.872117,17.097309,-0.023102,-0.279150,0.452731
874962766,0.088566,-1.562071,16.427488,-0.286585,0.221999,1.080202
874965271,-1.250595,-0.954352,15.830545,-0.197858,0.061089,1.170565
874967776,-1.127948,-1.318225,15.645700,-0.126707,-0.112026,0.761848
874970281,1.428914,-0.583669,15.883798,0.002938,0.138661,0.391264
874972787,2.642266,2.213406,16.686844,-0.004950,0.303883,0.416019
874975292,-1.142228,7.674497,17.708914,-0.196635,0.334752,0.676327
874977797,-6.874562,11.183738,19.027664,-0.376736,0.313481,1.166920
874980302,-10.289329,11.535118,20.436974,-0.460016,0.154398,1.291824
874982808,-10.106400,8.184909,21.746447,-0.325234,-0.022724,1.023488
874985313,-6.572375,5.270510,22.440355,-0.327973,-0.084398,0.735785
874987818,-4.683149,4.728155,22.247700,-0.239950,-0.056874,0.907564
874990324,-5.411729,4.486804,21.400093,-0.596519,0.045260,1.533802
874992843,-4.615952,3.276803,20.297592,-0.651243,-0.122509,1.181590
874995334,-2.418540,0.243361,19.662073,-0.368989,-0.039354,1.068006
874997839,-0.891590,-3.218847,19.389750,-0.622421,0.149426,1.690789
875000345,-0.156189,-6.377724,18.880020,-0.339136,-0.331001,1.228770
875002850,1.066961,-9.412849,18.126877,-0.016615,-0.224930,1.106938
875005355,1.497468,-10.806128,17.024452,-0.120979,0.262646,1.558473
875007860,-1.727556,-12.026444,16.239893,-0.126640,0.124998,1.196637
875010366,-5.198384,-12.458962,16.007299,-0.163111,-0.030272,0.677110
875012871,-8.732133,-11.676522,16.086506,-0.135664,0.094250,0.866190
875015376,-13.788174,-10.043755,15.631764,-0.279736,-0.077917,0.888850
875017882,-17.199461,-7.005662,14.513950,-0.219681,-0.404290,0.215250
875020387,-18.540348,-2.440667,12.974802,-0.150101,-0.144227,0.421674
875022892,-20.551168,3.341484,10.901097,-0.342694,-0.026719,1.106957
875025397,-23.411703,6.933527,8.512168,-0.399958,-0.393190,1.106740
875027903,-20.604330,6.949256,6.259050,-0.326270,-0.348067,0.898575
875030408,-13.654110,4.173338,4.759052,-0.386878,0.012678,0.949762
875032913,-8.838957,2.910285,3.944332,-0.190245,0.113109,0.754932
875035419,-10.422656,3.089434,3.890850,-0.103382,0.271938,1.051064
875037924,-13.165294,2.410190,4.866151,-0.503303,0.383569,1.584583
875040429,-12.801926,-0.029625,6.726860,-0.254782,0.144120,0.929558
875042934,-11.890606,-2.956029,8.885215,-0.052050,0.216198,0.747577
875045440,-12.077848,-2.781374,10.645001,-0.146509,0.236063,1.009163
875047945,-14.944226,-1.758231,11.693271,-0.235323,0.006941,1.003730
875050450,-16.043444,-0.607949,12.372169,-0.334624,0.029624,1.001539
875052955,-14.462128,-0.364681,13.216622,-0.284151,0.163152,0.914192
875055461,-12.638720,0.363898,14.487881,-0.191761,0.258346,0.822298
875057966,-12.279330,2.182139,16.196503,-0.154599,0.326144,0.970751
875060471,-11.311701,3.391017,18.504772,-0.426848,0.262813,1.102490
875062977,-8.699782,4.298482,21.047291,-0.336051,0.156960,0.972263
875065482,-5.171667,2.470661,23.688532,-0.436268,0.276312,1.316266
875067987,-1.398552,0.341080,25.902441,-0.417075,0.170851,1.168634
875070492,1.097297,-2.702125,27.751013,-0.222710,0.110536,0.950255
875072998,2.741266,-5.136516,29.000841,-0.393214,0.224252,1.198294
875075503,2.435266,-5.322459,29.667456,-0.063142,0.016248,0.671176
875078008,-1.342082,-4.723277,29.806906,-0.102625,0.118660,1.107595
875080513,-4.327405,-3.878276,29.763281,-0.365905,0.124496,1.296917
875083019,-5.485774,-3.273459,29.953657,-0.092662,-0.003225,0.354761
875085524,-6.159597,-1.331833,30.697121,-0.101370,0.282560,0.521489
875088029,-7.262897,2.735951,31.820726,-0.173660,0.189555,0.753578
875090535,-8.061267,6.439509,32.940662,-0.124178,-0.100547,0.621191
875093040,-6.787665,9.296520,33.986362,-0.140116,0.186250,0.870066
875095545,-4.842323,10.634832,34.958347,-0.268753,0.239671,0.981276
875098052,-3.871247,11.544969,35.991577,-0.159023,-0.075098,0.714886
875100556,-2.532976,11.362214,36.773342,-0.287024,-0.054863,0.858565
875103061,-1.254906,11.789802,37.014046,-0.201000,-0.005442,0.904036
875105570,-2.898074,11.301084,36.653038,-0.200459,-0.001173,1.083887
875108072,-4.844261,10.631519,35.746342,-0.298711,-0.041781,1.286425
875110577,-4.779941,8.931543,35.067451,-0.184290,-0.032963,1.059100
875113082,-3.071336,6.503661,34.801674,-0.348557,0.186005,1.203267
875115587,-0.876978,4.683529,34.902042,-0.283553,0.062780,0.877571
875118093,-0.449940,3.467100,35.134422,-0.178205,0.035492,0.738642
875120598,-1.607848,3.341586,35.440929,-0.296075,0.142678,0.964469
875123103,-4.167393,4.613020,35.459320,-0.107433,-0.046453,0.642694
875125608,-8.675462,5.881090,35.242455,-0.372610,0.015666,0.966022
875128114,-11.904963,8.247787,34.786053,-0.234073,-0.031795,0.998406
875130619,-13.365652,8.429248,34.247204,-0.262562,-0.126534,1.175279
875133124,-11.596883,8.010804,33.449696,-0.452615,-0.071835,1.101030
875135630,-10.009406,6.497728,32.523991,-0.277020,-0.083928,1.064500
875138135,-8.665126,4.558373,31.596205,-0.453880,-0.147241,1.391804
875140640,-6.222354,1.162861,30.411699,-0.549143,-0.313064,1.367257
875143145,-1.768117,-3.322354,29.090879,-0.452604,-0.214092,1.037967
875145651,0.003765,-5.441421,27.735937,-0.146686,0.016949,0.797743
875148156,-2.185719,-5.867240,26.589388,-0.424555,-0.032052,1.217608
875150661,-4.559910,-4.103496,25.337585,-0.148736,-0.329943,0.638118
875153167,-8.030567,-2.403291,24.150030,-0.134995,0.093307,0.785372
875155672,-13.329960,0.387026,23.098116,-0.231935,0.219957,1.194895
875158177,-17.958494,0.926020,22.634142,-0.202360,-0.169014,1.077912
875160682,-17.104595,-0.471396,22.742439,-0.172639,-0.091486,0.738861
875163188,-14.304130,-1.137665,23.576012,0.163898,0.371419,0.510200
875165693,-15.832634,0.372237,25.289492,-0.008532,0.473245,0.863955
875168198,-18.826239,3.579220,27.626432,-0.139928,0.072225,0.851085
875170703,-20.417391,5.756204,29.769121,-0.262413,0.143455,0.866785
875173209,-22.556625,8.114920,31.793882,-0.242891,0.500678,1.237829
875175714,-23.354815,8.772459,34.104855,-0.374632,0.200837,1.205495
875178219,-18.854147,8.588419,36.875198,-0.299748,-0.092637,0.989154
875180725,-12.401775,7.072795,39.144058,-0.234243,0.115202,1.407355
875183230,-8.503474,5.010168,39.963802,-0.698697,0.006352,1.628454
875185735,-6.612347,3.069752,39.579521,-0.336951,-0.434890,0.889973
875188240,-3.621557,-0.446674,38.513371,-0.571104,-0.095237,1.388907
875190746,-1.058248,-2.320941,37.217815,-0.362433,0.169306,1.200293
875193251,-1.359830,-3.596011,36.543247,-0.123711,0.039434,0.488375
875195756,-4.226253,-0.806074,36.876465,-0.008812,0.281089,0.586651
875198261,-10.322760,1.607869,38.128300,-0.074238,0.517258,1.530009
875200767,-15.688197,2.013135,40.151394,-0.461882,0.327010,1.140352
875203272,-16.180178,0.358984,42.748165,0.026670,0.099277,0.220325
875205777,-13.567637,-0.194723,45.644173,-0.182850,0.398443,0.579668
875208283,-13.880078,2.654650,47.665577,-0.179715,0.159465,0.670806
875210788,-15.164654,5.323199,48.780083,-0.334128,-0.200950,0.871844
875213293,-14.984187,6.781979,49.092686,-0.338774,0.044179,1.121451
875215798,-14.433807,4.532674,49.135544,-0.416612,0.202050,1.657683
875218303,-12.176642,0.888126,49.222927,-0.435864,-0.174655,0.927827
875220809,-11.320419,-2.028478,49.017525,-0.072770,-0.002124,0.715645
875223314,-11.987958,-3.975410,48.824551,-0.647666,0.354095,1.644805
875225820,-13.144362,-4.829471,48.822880,-0.403062,-0.050355,0.975720
875228325,-12.838248,-8.055223,49.526604,-0.421937,0.144092,1.436889
875230830,-8.330167,-12.064963,50.876019,-0.613645,0.352186,1.441556
875233335,-4.797298,-15.590605,52.293056,0.016558,-0.148519,0.359385
875235841,-5.652404,-15.901201,53.385155,-0.117772,0.303011,0.889446
875238346,-14.365076,-13.183450,53.315269,-0.027927,0.258402,1.384793
875240851,-24.049826,-11.560328,52.695801,-0.427773,-0.328778,1.105409
875243356,-28.617115,-9.619316,51.514004,0.122852,-0.346569,0.342027
875245862,-30.502993,-8.705680,50.193832,-0.122449,0.114069,1.452490
875248367,-30.073860,-7.054978,48.385284,-0.271115,-0.476573,1.054168
875250872,-26.475220,-6.063608,45.954193,0.192262,-0.881218,0.084132
875253378,-20.318844,-4.031553,43.278412,-0.320665,0.158705,0.756229
875255883,-17.880466,-0.184318,40.871578,-0.149972,0.070025,0.842908
875258388,-15.686459,1.345916,39.722416,-0.373712,-0.220180,1.009699
875260893,-8.011682,0.815045,39.872051,-0.363605,0.116346,0.784331
875263399,-0.947274,-0.937896,41.045887,-0.162837,0.482326,0.718853
875265904,-0.585876,-0.334751,42.442932,-0.281392,0.321615,0.741135
875268409,-5.341202,1.109366,43.622391,-0.214769,0.040111,0.922145
875270915,-9.913216,1.275432,45.095325,-0.381823,0.428640,1.343108
875273420,-15.581536,0.220625,47.048725,0.168570,0.684005,1.047565
875275925,-23.687967,-1.634633,50.036072,-0.271001,0.825598,1.116745
